"Time (s)","Acceleration x (m/s^2)","Acceleration y (m/s^2)","Acceleration z (m/s^2)","Absolute acceleration (m/s^2)"
2.164083329E-3,-4.083508301E-1,-2.392025757E-1,9.963730316E0,9.974963162E0
1.215108333E-2,-4.206253052E-1,-3.110531616E-1,1.012195129E1,1.013546140E1
2.213708333E-2,-3.646417236E-1,-5.689668274E-1,1.036594391E1,1.038794878E1
3.212408333E-2,-2.210902405E-1,-8.093669128E-1,1.033286270E1,1.036687066E1
4.211108333E-2,-4.565505981E-2,-7.225474548E-1,1.022418869E1,1.024978993E1
5.209708333E-2,-6.586303711E-3,-5.945635986E-1,1.016715729E1,1.018452928E1
6.208366666E-2,-3.562591553E-2,-5.971083069E-1,1.014530273E1,1.016292158E1
7.207066666E-2,-1.401086426E-1,-5.980064392E-1,1.008857071E1,1.010724993E1
8.205666667E-2,-1.848655701E-1,-6.297404480E-1,9.946067047E0,9.967697729E0
9.204366666E-2,-2.746788025E-1,-6.903643799E-1,1.006417145E1,1.009156075E1
1.020306667E-1,-1.553768921E-1,-8.235873413E-1,1.022059616E1,1.025490244E1
1.120166667E-1,2.574645996E-2,-1.103954315E0,9.826615448E0,9.888465461E0
1.220036667E-1,1.899549866E-1,-1.060095520E0,9.738748169E0,9.798117233E0
1.319906667E-1,3.591032410E-1,-7.324269104E-1,9.732012177E0,9.766138711E0
1.419766667E-1,3.365002441E-1,-6.487509155E-1,9.683662720E0,9.711201462E0
1.519636667E-1,2.517764282E-1,-8.044271851E-1,9.701924744E0,9.738472067E0
1.619506667E-1,2.050735474E-1,-9.918374634E-1,9.581874390E0,9.635253683E0
1.719366667E-1,2.508782959E-1,-1.169967041E0,9.537117462E0,9.611887030E0
1.819236667E-1,2.857557678E-1,-1.151555328E0,9.787397003E0,9.859050468E0
1.919106667E-1,3.287164307E-1,-1.005010071E0,9.880054321E0,9.936476897E0
2.018966667E-1,4.343966675E-1,-7.212002563E-1,9.810299377E0,9.846359944E0
2.118836667E-1,4.215234375E-1,-6.065386963E-1,9.577683105E0,9.606122260E0
2.218706667E-1,4.343966675E-1,-7.393125916E-1,9.395362244E0,9.434411230E0
2.318566667E-1,5.161267090E-1,-8.274792480E-1,9.378447418E0,9.429018224E0
2.418436667E-1,5.846841431E-1,-8.907975769E-1,9.275910645E0,9.336910311E0
2.518306667E-1,6.593788147E-1,-9.755213928E-1,9.183403015E0,9.258580526E0
2.618166667E-1,5.906716919E-1,-9.590556335E-1,9.364676056E0,9.432170396E0
2.718036667E-1,3.767665100E-1,-9.931846619E-1,9.563013611E0,9.621829249E0
2.817896667E-1,2.203417969E-1,-9.077124023E-1,9.611662445E0,9.656942957E0
2.917766667E-1,2.035766602E-1,-6.503974915E-1,9.657467194E0,9.681484026E0
3.017636667E-1,1.743873596E-1,-5.375321960E-1,9.641450500E0,9.657997700E0
3.117496667E-1,1.216969299E-1,-5.388793945E-1,9.666298828E0,9.682072825E0
3.217366667E-1,1.059796143E-1,-5.510041809E-1,9.781110077E0,9.797191007E0
3.317236667E-1,1.107696533E-1,-5.710624695E-1,9.844428406E0,9.861599916E0
3.417096667E-1,1.895059204E-1,-6.836283875E-1,9.788893890E0,9.814565903E0
3.516966667E-1,3.945794678E-1,-6.280938721E-1,9.663305054E0,9.691731498E0
3.616836667E-1,5.432203674E-1,-3.983216858E-1,9.659263458E0,9.682722711E0
3.716696667E-1,5.393284607E-1,-3.189866638E-1,9.622739410E0,9.643118865E0
3.816566667E-1,4.471202087E-1,-3.929328918E-1,9.581724701E0,9.600195883E0
3.916436667E-1,2.933898926E-1,-4.605921936E-1,9.530531158E0,9.546163992E0
4.016296667E-1,1.413061523E-1,-4.170327759E-1,9.590256958E0,9.600360008E0
4.116166667E-1,1.197509766E-3,-3.248245239E-1,9.785301361E0,9.790691249E0
4.216036667E-1,-8.008346558E-2,-1.372645569E-1,9.815987549E0,9.817273882E0
4.315896667E-1,-9.235794067E-2,6.735992432E-3,9.820927277E0,9.821363853E0
4.415766667E-1,-6.975494385E-2,-5.583389282E-2,9.751471710E0,9.751881033E0
4.515626667E-1,-2.844085693E-2,-6.152206421E-2,9.653874664E0,9.654112589E0
4.615496667E-1,6.975494385E-2,3.951782227E-2,9.538015594E0,9.538352525E0
4.715366667E-1,1.079255676E-1,1.401086426E-1,9.586814117E0,9.588445301E0
4.815226667E-1,9.774673462E-2,1.963916016E-1,9.635013885E0,9.637510916E0
4.915096667E-1,8.053253174E-2,1.089733887E-1,9.526639252E0,9.527602853E0
5.014966667E-1,2.335144043E-2,-2.110610962E-2,9.579030304E0,9.579082019E0
5.114826667E-1,-4.505630493E-2,-1.466949463E-1,9.613159332E0,9.614384111E0
5.214696667E-1,-1.004411316E-1,-1.782792664E-1,9.635163574E0,9.637336199E0
5.314566667E-1,-1.414558411E-1,-1.230441284E-1,9.725126495E0,9.726933482E0
5.414426667E-1,-1.621128845E-1,-7.589218140E-2,9.834698639E0,9.836327441E0
5.514296667E-1,-1.354682922E-1,-1.571731567E-2,9.803862762E0,9.804811256E0
5.614156667E-1,-1.121168518E-1,2.993774414E-2,9.626032562E0,9.626732018E0
5.714026667E-1,-7.020401001E-2,-2.829116821E-2,9.477092285E0,9.477394535E0
5.813896667E-1,4.146377563E-2,-4.131408691E-2,9.452094269E0,9.452275502E0
5.913756667E-1,1.121168518E-1,-1.258882141E-1,9.526489563E0,9.527980973E0
6.013626667E-1,1.544787598E-1,-2.875520325E-1,9.605225830E0,9.610770682E0
6.113496667E-1,1.878593445E-1,-3.884422302E-1,9.590256958E0,9.599958699E0
6.213356667E-1,2.074685669E-1,-4.875361633E-1,9.565708008E0,9.580370787E0
6.313226667E-1,2.001338196E-1,-4.840933228E-1,9.630822601E0,9.645058002E0
6.413096667E-1,1.704954529E-1,-4.089495850E-1,9.773326263E0,9.783364182E0
6.512956667E-1,1.942959595E-1,-3.435356140E-1,9.877060547E0,9.884942725E0
6.612826667E-1,2.335144043E-1,-3.797602844E-1,9.842183075E0,9.852274587E0
6.712696667E-1,3.126997375E-1,-4.079017639E-1,9.779912567E0,9.793408742E0
6.812556667E-1,4.357438660E-1,-4.257147217E-1,9.713151398E0,9.732235910E0
6.912426667E-1,5.745053101E-1,-3.661386108E-1,9.689650269E0,9.713569692E0
7.012286667E-1,6.608757019E-1,-2.803669739E-1,9.690249023E0,9.716804437E0
7.112156667E-1,6.810836792E-1,-3.558100891E-1,9.620344391E0,9.650984509E0
7.212026667E-1,6.153703308E-1,-5.016069031E-1,9.655371552E0,9.687955921E0
7.311886667E-1,5.137316895E-1,-5.760021973E-1,9.705068207E0,9.735709922E0
7.411756667E-1,4.746629333E-1,-5.587879944E-1,9.709558868E0,9.737200950E0
7.511626667E-1,5.242098999E-1,-5.360353088E-1,9.678423615E0,9.707420540E0
7.611486667E-1,3.583547974E-1,-3.402424622E-1,9.681567078E0,9.694169597E0
7.711356667E-1,3.776646423E-1,-4.080514526E-1,9.758207703E0,9.774034691E0
7.811226667E-1,4.468208313E-1,-4.885839844E-1,9.560917969E0,9.583815293E0
7.911086667E-1,5.821394348E-1,-4.424798584E-1,9.573940887E0,9.601823726E0
8.010956667E-1,5.854325867E-1,-3.897894287E-1,9.692045288E0,9.717531012E0
8.110816667E-1,5.346881104E-1,-4.586462402E-1,9.639055481E0,9.664762714E0
8.210686667E-1,4.596940613E-1,-5.676196289E-1,9.713450775E0,9.740874531E0
8.310556667E-1,3.761677551E-1,-5.807922363E-1,9.793085175E0,9.817501670E0
8.410416667E-1,3.528163147E-1,-6.012995911E-1,9.770781555E0,9.795622122E0
8.510286667E-1,3.068618774E-1,-6.017486572E-1,9.675729218E0,9.699278404E0
8.610156667E-1,2.592608643E-1,-7.011419678E-1,9.691296844E0,9.720084916E0
8.710016667E-1,2.670446777E-1,-6.845265198E-1,9.684560852E0,9.712394572E0
8.809886667E-1,3.332070923E-1,-5.746549988E-1,9.582622833E0,9.605618965E0
8.909746667E-1,3.393443298E-1,-4.998106384E-1,9.615853729E0,9.634812307E0
9.009616667E-1,3.403921509E-1,-5.632786560E-1,9.740843811E0,9.763052177E0
9.109486667E-1,3.260220337E-1,-6.030958557E-1,9.703870697E0,9.728058464E0
9.209346667E-1,3.595523071E-1,-5.626799011E-1,9.702373810E0,9.725324883E0
9.309216667E-1,3.655398560E-1,-5.631289673E-1,9.718390503E0,9.741552627E0
9.409086667E-1,3.854484558E-1,-5.414241028E-1,9.714648285E0,9.737356000E0
9.508946667E-1,3.535647583E-1,-5.734574890E-1,9.741292877E0,9.764560843E0
9.608816667E-1,2.673440552E-1,-5.879772949E-1,9.727521515E0,9.748941736E0
9.708676667E-1,1.968406677E-1,-6.339317322E-1,9.740843811E0,9.763434531E0
9.808546667E-1,1.303788757E-1,-6.424639893E-1,9.715696106E0,9.737787708E0
9.908416667E-1,1.044827271E-1,-5.800437927E-1,9.634714508E0,9.652724543E0
1.000827667E0,1.161584473E-1,-5.604345703E-1,9.583970032E0,9.601044801E0
1.010814667E0,1.595681763E-1,-5.881269836E-1,9.593101044E0,9.612436891E0
1.020801667E0,1.850152588E-1,-6.015989685E-1,9.720336456E0,9.740692624E0
1.030787667E0,2.290237427E-1,-6.236032104E-1,9.845775604E0,9.868162447E0
1.040774667E0,2.263293457E-1,-6.620732117E-1,9.857900391E0,9.882700341E0
1.050760667E0,1.652563477E-1,-6.418652344E-1,9.728569336E0,9.751121062E0
1.060747708E0,8.352630615E-2,-5.619314575E-1,9.653126221E0,9.669828822E0
1.070734708E0,9.505233765E-2,-5.379812622E-1,9.735754395E0,9.751070322E0
1.080720708E0,1.365161133E-1,-5.447172546E-1,9.795629883E0,9.811713323E0
1.090707708E0,1.844165039E-1,-5.593867493E-1,9.786199493E0,9.803908583E0
1.100694708E0,2.317181396E-1,-5.792953491E-1,9.772128754E0,9.792026183E0
1.110680708E0,2.192939758E-1,-5.966592407E-1,9.863887939E0,9.884350124E0
1.120667708E0,2.016307068E-1,-6.494993591E-1,1.002061203E1,1.004366317E1
1.130653708E0,1.778302002E-1,-6.556365967E-1,1.010788055E1,1.013068271E1
1.140640708E0,2.297721863E-1,-6.468049622E-1,1.008991791E1,1.011323862E1
1.150627708E0,2.758763123E-1,-6.330335999E-1,1.014829651E1,1.017176294E1
1.160613708E0,3.050656128E-1,-6.005511475E-1,1.015652939E1,1.017884158E1
1.170600708E0,2.656974792E-1,-5.496569824E-1,1.011177246E1,1.013018560E1
1.180587708E0,2.704875183E-1,-5.501060486E-1,1.012269974E1,1.014124401E1
1.190573708E0,3.101550293E-1,-5.915698242E-1,1.019080811E1,1.021267452E1
1.200560708E0,3.367996216E-1,-5.547463989E-1,1.021176453E1,1.023236592E1
1.210546708E0,3.852987671E-1,-5.140310669E-1,1.028855484E1,1.030859078E1
1.220533708E0,4.378395081E-1,-5.234614563E-1,1.035801041E1,1.038046699E1
1.230520708E0,4.680766296E-1,-5.694158936E-1,1.024200165E1,1.026849200E1
1.240506708E0,4.727169800E-1,-5.986051941E-1,1.010458740E1,1.013333489E1
1.250493708E0,4.342469788E-1,-6.192622375E-1,1.006806335E1,1.009643283E1
1.260480708E0,4.433779907E-1,-6.545887756E-1,1.006656647E1,1.009756560E1
1.270466708E0,4.544549561E-1,-6.508465576E-1,1.005174728E1,1.008304289E1
1.280453708E0,3.782633972E-1,-7.183561707E-1,9.976603546E0,1.000958226E1
1.290439708E0,3.306623840E-1,-7.688012695E-1,9.923164673E0,9.958392949E0
1.300426708E0,3.269201660E-1,-7.366181946E-1,9.956694946E0,9.989257100E0
1.310413708E0,3.638932800E-1,-6.447093201E-1,9.931247864E0,9.958802767E0
1.320399708E0,3.848497009E-1,-6.288423157E-1,9.785451050E0,9.813185222E0
1.330386708E0,3.905378723E-1,-6.944059753E-1,9.624236298E0,9.657155057E0
1.340372708E0,4.008663940E-1,-7.137158203E-1,9.586065674E0,9.620953136E0
1.350359708E0,4.007167053E-1,-7.523355103E-1,9.564360809E0,9.602269538E0
1.360346708E0,3.829037476E-1,-7.514373779E-1,9.499994659E0,9.537356654E0
1.370332708E0,2.565664673E-1,-6.619235229E-1,9.494456177E0,9.520959363E0
1.380319708E0,2.005828857E-1,-7.259902954E-1,9.473350067E0,9.503244546E0
1.390306708E0,2.049238586E-1,-7.589218140E-1,9.476792908E0,9.509340667E0
1.400292708E0,2.412982178E-1,-6.237528992E-1,9.475595398E0,9.499168419E0
1.410279708E0,2.757266235E-1,-4.917274475E-1,9.525441742E0,9.542109905E0
1.420265708E0,3.306623840E-1,-4.655319214E-1,9.591903534E0,9.608885002E0
1.430252708E0,3.504212952E-1,-4.661306763E-1,9.485474854E0,9.503383928E0
1.440239708E0,3.040177917E-1,-3.968247986E-1,9.344767456E0,9.358128849E0
1.450225708E0,2.465373230E-1,-3.676354980E-1,9.255103912E0,9.265683188E0
1.460212708E0,2.207908630E-1,-3.010240173E-1,9.374854889E0,9.382284810E0
1.470198708E0,1.676513672E-1,-2.465373230E-1,9.578880615E0,9.583519263E0
1.480185708E0,8.936416626E-2,-2.939886475E-1,9.682614899E0,9.687489177E0
1.490172708E0,-2.095642090E-3,-2.805166626E-1,9.800120544E0,9.804134672E0
1.500158708E0,-4.385879517E-2,-2.773731995E-1,9.779762878E0,9.783793816E0
1.510145708E0,-6.421646118E-2,-2.083666992E-1,9.733359375E0,9.735801208E0
1.520132708E0,-7.170089722E-2,-1.326242065E-1,9.789492645E0,9.790653525E0
1.530118708E0,-3.188369751E-2,-2.844085693E-2,9.646988983E0,9.647083595E0
1.540105708E0,-1.945953369E-3,3.143463135E-3,9.599537659E0,9.599538371E0
1.550091708E0,-3.068618774E-2,-6.706054688E-2,9.557624817E0,9.557909337E0
1.560078708E0,-1.901046753E-2,-1.616638184E-1,9.476194153E0,9.477592110E0
1.570065708E0,-8.532257080E-3,-1.874102783E-1,9.476343842E0,9.478200674E0
1.580051708E0,-1.945953369E-3,-2.133064270E-1,9.351353760E0,9.353786429E0
1.590038708E0,3.562591553E-2,-1.537303162E-1,9.319769440E0,9.321105333E0
1.600024708E0,5.269042969E-2,-1.402583313E-1,9.456584930E0,9.457771790E0
1.610011708E0,1.571731567E-2,-1.475930786E-1,9.570198669E0,9.571349608E0
1.619998708E0,-7.155120850E-2,-1.441502380E-1,9.644444275E0,9.645786865E0
1.629984708E0,-1.380130005E-1,-1.056802368E-1,9.571695557E0,9.573273825E0
1.639971708E0,-2.508782959E-1,-1.761836243E-1,9.469009094E0,9.473970330E0
1.649957708E0,-2.691403198E-1,-2.766247559E-1,9.526639252E0,9.534454006E0
1.659944708E0,-2.035766602E-1,-3.195854187E-1,9.630972290E0,9.638423395E0
1.669931708E0,-1.492396545E-1,-3.070115662E-1,9.649833069E0,9.655869036E0
1.679917708E0,-1.017883301E-1,-3.706292725E-1,9.750573578E0,9.758145931E0
1.689904708E0,-2.155517578E-2,-4.784051514E-1,9.985584869E0,9.997061633E0
1.699890708E0,2.844085693E-2,-6.221063232E-1,1.011476624E1,1.013391934E1
1.709877708E0,3.233276367E-2,-7.135661316E-1,1.002315674E1,1.004857667E1
1.719864708E0,-2.993774414E-4,-7.520361328E-1,9.942324829E0,9.970726224E0
1.729850708E0,-1.616638184E-2,-7.294331360E-1,9.952353973E0,9.979062264E0
1.739837708E0,-8.367599487E-2,-6.554869080E-1,9.928852844E0,9.950818236E0
1.749823708E0,-1.576222229E-1,-6.692582703E-1,9.980645142E0,1.000430052E1
1.759810708E0,-1.558259583E-1,-8.234376526E-1,1.005953110E1,1.009437949E1
1.769797708E0,-1.157093811E-1,-9.463320923E-1,9.942773895E0,9.988377537E0
1.779783708E0,-1.350192261E-1,-9.916877747E-1,9.943073273E0,9.993316814E0
1.789770708E0,-1.459465027E-1,-1.044228516E0,9.914183350E0,9.970092530E0
1.799756708E0,-1.248403931E-1,-1.115929413E0,9.891131287E0,9.954665324E0
1.809743708E0,-1.306782532E-1,-1.040336609E0,9.912686462E0,9.967985251E0
1.819730708E0,-1.555265808E-1,-9.695338440E-1,9.845326538E0,9.894171973E0
1.829716708E0,-1.498384094E-1,-9.339079285E-1,9.710906067E0,9.756860776E0
1.839703708E0,-1.892065430E-1,-9.204359436E-1,9.646539917E0,9.692199637E0
1.849690708E0,-2.309696960E-1,-9.610015869E-1,9.643097076E0,9.693616058E0
1.859676708E0,-2.022294617E-1,-1.002315674E0,9.699829102E0,9.753574630E0
1.869663708E0,-1.749861145E-1,-1.043629761E0,9.758357391E0,9.815565302E0
1.879649708E0,-1.579216003E-1,-1.014889526E0,9.719138947E0,9.773259530E0
1.889636708E0,-1.419049072E-1,-9.300160217E-1,9.724228363E0,9.769630702E0
1.899623708E0,-1.115180969E-1,-9.060658264E-1,9.903555450E0,9.945541822E0
1.909609708E0,-1.077758789E-1,-9.169931030E-1,9.905202026E0,9.948141493E0
1.919596708E0,-1.627116394E-1,-9.372010803E-1,9.827363892E0,9.873292359E0
1.929582708E0,-1.636097717E-1,-9.457333374E-1,9.811945953E0,9.858775943E0
1.939569708E0,-1.591191101E-1,-9.301657104E-1,9.841883698E0,9.887021890E0
1.949555708E0,-1.543290710E-1,-9.237290955E-1,1.001657043E1,1.006025726E1
1.959542708E0,-1.212478638E-1,-9.268725586E-1,1.023152344E1,1.027413576E1
1.969529708E0,-1.172062683E-1,-9.812095642E-1,1.039228912E1,1.043916581E1
1.979515708E0,-1.369651794E-1,-1.061293030E0,1.060305084E1,1.065691276E1
1.989502708E0,-1.139131165E-1,-1.145268402E0,1.075408676E1,1.081549805E1
1.999488708E0,-8.622070312E-2,-1.139430542E0,1.068343369E1,1.074437021E1
2.009475708E0,-1.263372803E-1,-1.049317932E0,1.058808197E1,1.064070059E1
2.019462708E0,-1.239422607E-1,-9.593550110E-1,1.053494247E1,1.057925974E1
2.029448708E0,-1.552272034E-1,-9.002279663E-1,1.044557831E1,1.048544763E1
2.039435708E0,-2.377056885E-1,-9.199868774E-1,1.034783157E1,1.039136652E1
2.049421708E0,-2.662962341E-1,-1.016236725E0,1.026924500E1,1.032284087E1
2.059409542E0,-2.300715637E-1,-1.074914703E0,1.029798523E1,1.035648948E1
2.069396542E0,-2.535726929E-1,-1.057251434E0,1.043270508E1,1.048920469E1
2.079382542E0,-2.715353394E-1,-1.103505249E0,1.043749512E1,1.049917900E1
2.089369542E0,-3.213816833E-1,-1.145717468E0,1.038600220E1,1.045394645E1
2.099355542E0,-3.586541748E-1,-1.146465912E0,1.042087967E1,1.048988799E1
2.109342542E0,-3.730242920E-1,-1.152603149E0,1.047027695E1,1.054013000E1
2.119329542E0,-4.047583008E-1,-1.201401672E0,1.038495438E1,1.046204916E1
2.129315542E0,-4.574487305E-1,-1.202000427E0,1.033076706E1,1.041051451E1
2.139302542E0,-4.658312988E-1,-1.163081360E0,1.022718246E1,1.030364102E1
2.149288542E0,-4.101470947E-1,-1.126557312E0,1.015967285E1,1.023016639E1
2.159275542E0,-4.031117249E-1,-1.108744354E0,1.023915756E1,1.030689869E1
2.169262542E0,-4.147874451E-1,-1.161734161E0,1.029873367E1,1.037234738E1
2.179248542E0,-4.429289246E-1,-1.238973541E0,1.027478348E1,1.035868800E1
2.189235542E0,-4.763095093E-1,-1.276246033E0,1.027538223E1,1.036528604E1
2.199221542E0,-4.887336731E-1,-1.232536926E0,1.026580215E1,1.035107249E1
2.209208542E0,-4.661306763E-1,-1.177451477E0,1.024813889E1,1.032608447E1
2.219195542E0,-4.384382629E-1,-1.142873383E0,1.012808853E1,1.020179224E1
2.229181542E0,-4.975653076E-1,-1.147064667E0,9.905351715E0,9.983953184E0
2.239168542E0,-4.969665527E-1,-1.138233032E0,9.664352875E0,9.743832238E0
2.249154542E0,-4.471202087E-1,-1.083596649E0,9.520052948E0,9.591950079E0
2.259141542E0,-3.891906738E-1,-1.026116180E0,9.444759521E0,9.508305118E0
2.269127542E0,-3.173400879E-1,-1.034349060E0,9.297016754E0,9.359759785E0
2.279114542E0,-2.430944824E-1,-9.882449341E-1,9.235195312E0,9.291100873E0
2.289101542E0,-1.663041687E-1,-9.568103027E-1,9.292975159E0,9.343582307E0
2.299087542E0,-1.718426514E-1,-9.701325989E-1,9.223818970E0,9.276288242E0
2.309074542E0,-1.606159973E-1,-9.883946228E-1,9.159003754E0,9.213580802E0
2.319060542E0,-1.600172424E-1,-1.045426025E0,9.176217957E0,9.236963629E0
2.329047542E0,-1.927990723E-1,-1.132245483E0,9.213191071E0,9.284505427E0
2.339034542E0,-2.442919922E-1,-1.106648712E0,9.184001770E0,9.253660814E0
2.349020542E0,-2.643502808E-1,-1.041983185E0,9.280401306E0,9.342454626E0
2.359007542E0,-2.065704346E-1,-9.710307312E-1,9.372310181E0,9.424742445E0
2.368993542E0,-1.339714050E-1,-9.190887451E-1,9.304650879E0,9.350893029E0
2.378980542E0,-1.207987976E-1,-9.035211182E-1,9.255702667E0,9.300482494E0
2.388966542E0,-1.276844788E-1,-9.116043091E-1,9.236093445E0,9.281850455E0
2.398953542E0,-1.911524963E-1,-9.018745422E-1,9.257648621E0,9.303438878E0
2.408940542E0,-2.622546387E-1,-9.379495239E-1,9.334438934E0,9.385109324E0
2.418926542E0,-2.740800476E-1,-1.028810577E0,9.341174927E0,9.401655178E0
2.428913542E0,-2.655477905E-1,-1.059197388E0,9.396260376E0,9.459499130E0
2.438899542E0,-2.258802795E-1,-1.016386414E0,9.464668121E0,9.521764852E0
2.448886542E0,-2.103126526E-1,-9.979747009E-1,9.485923920E0,9.540594191E0
2.458873542E0,-2.264790344E-1,-1.028960266E0,9.516909485E0,9.575051860E0
2.468859542E0,-2.743794250E-1,-1.076261902E0,9.553433533E0,9.617781242E0
2.478846542E0,-3.341052246E-1,-1.084195404E0,9.596992950E0,9.663818069E0
2.488832542E0,-3.329077148E-1,-1.080303497E0,9.637259216E0,9.703331819E0
2.498819542E0,-3.180885315E-1,-1.068627777E0,9.547146606E0,9.612031729E0
2.508805542E0,-3.264710999E-1,-1.060843964E0,9.500294037E0,9.564912968E0
2.518792542E0,-3.016227722E-1,-1.072519684E0,9.543554077E0,9.608366104E0
2.528779542E0,-2.797682190E-1,-1.086590424E0,9.491163025E0,9.557255075E0
2.538765542E0,-2.670446777E-1,-1.050066376E0,9.386081543E0,9.448411453E0
2.548752542E0,-2.814147949E-1,-1.000818787E0,9.246421967E0,9.304684396E0
2.558738542E0,-3.281176758E-1,-9.702822876E-1,9.105564880E0,9.162991909E0
2.568725542E0,-3.905378723E-1,-9.952803040E-1,9.059460754E0,9.122331493E0
2.578711542E0,-3.977229309E-1,-1.060095520E0,9.094637604E0,9.164846926E0
2.588698542E0,-3.911366272E-1,-1.078507233E0,9.131610718E0,9.203395026E0
2.598685542E0,-3.772155762E-1,-1.017733612E0,9.073980560E0,9.138664919E0
2.608671542E0,-3.204835510E-1,-9.861492920E-1,9.146729279E0,9.205316759E0
2.618658542E0,-2.685415649E-1,-1.020577698E0,9.187294922E0,9.247706818E0
2.628644542E0,-3.028202820E-1,-1.058448944E0,9.099577332E0,9.165932680E0
2.638631542E0,-3.210823059E-1,-1.059347076E0,9.001830597E0,9.069634181E0
2.648618542E0,-3.025209045E-1,-1.052910461E0,8.946146393E0,9.012972574E0
2.658604542E0,-2.953358459E-1,-9.602531433E-1,8.930578766E0,8.986909728E0
2.668591542E0,-3.028202820E-1,-8.532257080E-1,9.011260986E0,9.056628445E0
2.678577542E0,-3.326083374E-1,-8.481362915E-1,9.134604492E0,9.179921716E0
2.688564542E0,-3.580554199E-1,-9.099577332E-1,9.173673248E0,9.225644022E0
2.698550542E0,-4.254153442E-1,-9.223818970E-1,9.094188538E0,9.150739409E0
2.708537542E0,-4.462220764E-1,-9.360035706E-1,9.074729004E0,9.133779246E0
2.718524542E0,-3.924838257E-1,-9.446855164E-1,9.195078735E0,9.251807782E0
2.728510542E0,-3.844006348E-1,-9.044192505E-1,9.315877533E0,9.367567039E0
2.738497542E0,-4.008663940E-1,-8.738827515E-1,9.336534576E0,9.385906606E0
2.748483542E0,-4.147874451E-1,-8.925938416E-1,9.383387146E0,9.434867605E0
2.758470542E0,-4.546046448E-1,-9.063652039E-1,9.344468079E0,9.399321621E0
2.768456542E0,-4.763095093E-1,-8.922944641E-1,9.277557220E0,9.332530640E0
2.778443542E0,-4.661306763E-1,-9.214837646E-1,9.275760956E0,9.333067633E0
2.788429542E0,-4.517605591E-1,-9.758207703E-1,9.198970642E0,9.261607563E0
2.798416542E0,-4.227209473E-1,-9.656419373E-1,9.076824646E0,9.137828134E0
2.808403542E0,-3.824546814E-1,-8.454418945E-1,9.041049042E0,9.088542862E0
2.818389542E0,-3.088078308E-1,-7.201524353E-1,8.980125732E0,9.014246501E0
2.828376542E0,-2.758763123E-1,-7.120692444E-1,8.881181488E0,8.913951703E0
2.838362542E0,-2.945874023E-1,-7.816744995E-1,8.964857483E0,9.003691823E0
2.848349542E0,-2.968327332E-1,-7.735913086E-1,9.085207214E0,9.122913094E0
2.858336542E0,-3.171903992E-1,-7.674540710E-1,9.191186829E0,9.228624536E0
2.868322542E0,-3.347039795E-1,-8.015830994E-1,9.427844696E0,9.467777872E0
2.878309542E0,-3.135978699E-1,-8.541238403E-1,9.704319763E0,9.746881205E0
2.888295542E0,-3.938310242E-1,-8.340655518E-1,9.992919617E0,1.003539788E1
2.898282542E0,-4.758604431E-1,-8.243357849E-1,1.031235535E1,1.035618875E1
2.908268542E0,-5.366340637E-1,-7.291337585E-1,1.039378601E1,1.043313950E1
2.918255542E0,-5.258564758E-1,-6.301895142E-1,1.044932053E1,1.048150578E1
2.928241542E0,-4.531077576E-1,-5.676196289E-1,1.048015640E1,1.050529280E1
2.938228542E0,-3.695814514E-1,-4.849914551E-1,1.042686722E1,1.044468128E1
2.948215542E0,-3.242257690E-1,-4.861889648E-1,1.055874298E1,1.057490215E1
2.958201542E0,-3.037184143E-1,-5.150788879E-1,1.061053528E1,1.062737080E1
2.968188542E0,-3.585044861E-1,-6.059399414E-1,1.065439407E1,1.067763091E1
2.978174542E0,-4.279600525E-1,-6.749464417E-1,1.070094727E1,1.073074904E1
2.988161542E0,-4.315525818E-1,-6.938072205E-1,1.072549622E1,1.075657358E1
2.998147542E0,-5.017565918E-1,-6.328839111E-1,1.080393311E1,1.083407921E1
3.008134542E0,-5.331912231E-1,-6.397695923E-1,1.065244812E1,1.068495433E1
3.018121542E0,-5.325924683E-1,-6.732998657E-1,1.056682617E1,1.060164151E1
3.028107542E0,-5.355862427E-1,-7.581733704E-1,1.043824356E1,1.047943740E1
3.038094542E0,-5.269042969E-1,-7.768844604E-1,1.029050079E1,1.033322719E1
3.048080542E0,-5.043013000E-1,-7.795788574E-1,1.022972717E1,1.027177594E1
3.058067708E0,-4.698728943E-1,-8.514294434E-1,1.012284943E1,1.016945393E1
3.068053708E0,-4.836442566E-1,-9.276210022E-1,1.009605515E1,1.015010946E1
3.078040708E0,-4.809498596E-1,-9.377998352E-1,1.019440063E1,1.024873580E1
3.088026708E0,-5.357359314E-1,-9.095086670E-1,1.036280045E1,1.041642223E1
3.098013708E0,-5.354365540E-1,-8.771759033E-1,1.052820648E1,1.057824473E1
3.108000708E0,-4.860392761E-1,-8.945397949E-1,1.053389465E1,1.058297558E1
3.117986708E0,-4.498146057E-1,-8.888516235E-1,1.046548691E1,1.051279252E1
3.127973708E0,-3.987707520E-1,-8.809181213E-1,1.054916290E1,1.059338816E1
3.137959708E0,-3.486250305E-1,-8.156538391E-1,1.055305481E1,1.059026895E1
3.147946708E0,-3.326083374E-1,-7.566764832E-1,1.048749115E1,1.052001227E1
3.157932708E0,-3.839515686E-1,-7.433541870E-1,1.044782364E1,1.048126963E1
3.167919708E0,-4.102967834E-1,-7.755372620E-1,1.043225601E1,1.046908625E1
3.177906708E0,-4.607418823E-1,-7.975415039E-1,1.044108765E1,1.048163474E1
3.187892708E0,-4.550537109E-1,-7.801776123E-1,1.045994843E1,1.049887004E1
3.197879708E0,-4.905299377E-1,-6.938072205E-1,1.042791504E1,1.046247581E1
3.207865708E0,-4.962181091E-1,-6.598278809E-1,1.042626846E1,1.045890431E1
3.217852708E0,-4.959187317E-1,-6.920109558E-1,1.040456360E1,1.043933706E1
3.227838708E0,-5.105882263E-1,-7.047344971E-1,1.042701691E1,1.046327065E1
3.237825708E0,-5.239105225E-1,-7.539820862E-1,1.044647644E1,1.048674598E1
3.247811708E0,-5.372328186E-1,-7.367678833E-1,1.046384033E1,1.050349468E1
3.257798708E0,-5.044509888E-1,-6.562353516E-1,1.053479279E1,1.056725956E1
3.267785708E0,-4.593946838E-1,-5.749543762E-1,1.064182022E1,1.066723739E1
3.277771708E0,-4.704716492E-1,-6.282435608E-1,1.066981201E1,1.069864112E1
3.287758708E0,-4.614903259E-1,-7.206015015E-1,1.062924637E1,1.066363532E1
3.297744708E0,-4.393363953E-1,-7.282356262E-1,1.055365356E1,1.058786792E1
3.307731708E0,-4.095483398E-1,-6.867718506E-1,1.042297531E1,1.045360224E1
3.317717708E0,-3.938310242E-1,-6.225553894E-1,1.022179367E1,1.024830444E1
3.327704708E0,-3.379971313E-1,-6.080355835E-1,1.002854553E1,1.005264517E1
3.337690708E0,-2.865042114E-1,-6.300398254E-1,9.695787506E0,9.720459362E0
3.347677708E0,-2.709365845E-1,-6.809339905E-1,9.380093994E0,9.408679029E0
3.357664708E0,-2.915936279E-1,-7.390132141E-1,9.125772858E0,9.160289167E0
3.367650708E0,-3.116519165E-1,-7.671546936E-1,8.915909271E0,8.954277825E0
3.377637708E0,-3.234773254E-1,-7.888595581E-1,8.715625763E0,8.757229552E0
3.387623708E0,-3.209326172E-1,-8.319699097E-1,8.433761902E0,8.480773048E0
3.397610708E0,-3.062631226E-1,-9.027726746E-1,8.170609131E0,8.226034839E0
3.407596708E0,-3.043171692E-1,-9.398954773E-1,7.992030487E0,8.052860594E0
3.417583708E0,-2.568658447E-1,-9.162446594E-1,7.803572388E0,7.861375602E0
3.427569708E0,-2.201921082E-1,-8.900491333E-1,7.638615417E0,7.693446401E0
3.437556708E0,-1.984872437E-1,-8.882528687E-1,7.479346619E0,7.534521630E0
3.447542708E0,-1.841171265E-1,-8.659492493E-1,7.415279846E0,7.467940976E0
3.457529708E0,-1.730401611E-1,-8.042774963E-1,7.493866425E0,7.538888458E0
3.467516708E0,-1.878593445E-1,-7.373666382E-1,7.632178802E0,7.670016556E0
3.477502708E0,-1.945953369E-1,-6.403683472E-1,7.877069550E0,7.905451515E0
3.487489708E0,-2.085163879E-1,-5.843847656E-1,8.280630341E0,8.303843898E0
3.497475708E0,-2.872526550E-1,-5.433700562E-1,8.610693970E0,8.632601911E0
3.507462708E0,-3.637435913E-1,-5.004093933E-1,8.796906738E0,8.818632951E0
3.517448708E0,-4.436773682E-1,-4.760101318E-1,8.922196198E0,8.945894044E0
3.527435708E0,-5.007087708E-1,-4.596940613E-1,9.086853790E0,9.112241201E0
3.537421708E0,-5.004093933E-1,-4.598437500E-1,9.264384613E0,9.289278126E0
3.547408708E0,-4.845423889E-1,-4.601431274E-1,9.402397614E0,9.426112343E0
3.557395708E0,-4.499642944E-1,-4.632865906E-1,9.464069366E0,9.486079870E0
3.567381708E0,-4.197271729E-1,-4.704716492E-1,9.453142090E0,9.474144280E0
3.577368708E0,-3.938310242E-1,-4.734654236E-1,9.595496063E0,9.615238795E0
3.587354708E0,-3.948788452E-1,-5.117857361E-1,9.744286652E0,9.765704086E0
3.597341708E0,-4.340972900E-1,-5.710624695E-1,9.926607513E0,9.952491624E0
3.607327708E0,-4.815486145E-1,-5.462141418E-1,1.013138168E1,1.015751612E1
3.617314708E0,-5.063969421E-1,-4.397854614E-1,1.024948608E1,1.027140760E1
3.627300708E0,-5.013075256E-1,-4.423301697E-1,1.037327866E1,1.039480040E1
3.637287708E0,-5.149291992E-1,-4.926255798E-1,1.043749512E1,1.046179413E1
3.647273708E0,-5.126838684E-1,-5.358856201E-1,1.040561142E1,1.043200686E1
3.657260708E0,-5.126838684E-1,-5.050497437E-1,1.041848465E1,1.044331089E1
3.667247708E0,-4.908293152E-1,-4.827461243E-1,1.052251831E1,1.054501535E1
3.677233708E0,-4.845423889E-1,-4.680766296E-1,1.059302170E1,1.061442348E1
3.687220708E0,-5.647755432E-1,-4.834945679E-1,1.064646057E1,1.067238779E1
3.697206708E0,-6.298901367E-1,-5.839356995E-1,1.068043991E1,1.071492133E1
3.707193708E0,-6.833290100E-1,-6.107299805E-1,1.081905167E1,1.085779944E1
3.717179708E0,-6.530918884E-1,-5.325924683E-1,1.091335556E1,1.094584457E1
3.727166708E0,-6.381230164E-1,-4.352947998E-1,1.095676529E1,1.098396049E1
3.737152708E0,-6.228547668E-1,-4.631369019E-1,1.097233292E1,1.099975152E1
3.747139708E0,-5.848338318E-1,-5.586383057E-1,1.097592545E1,1.100568248E1
3.757125708E0,-5.837860107E-1,-6.309379578E-1,1.091185867E1,1.094566346E1
3.767112708E0,-5.795947266E-1,-6.189628601E-1,1.077025314E1,1.080358264E1
3.777099708E0,-5.683680725E-1,-5.860313416E-1,1.058014847E1,1.061159821E1
3.787085708E0,-5.426216125E-1,-6.219566345E-1,1.043779449E1,1.047037832E1
3.797072708E0,-4.954696655E-1,-6.815327454E-1,1.029424301E1,1.032866963E1
3.807058708E0,-4.587959290E-1,-7.183561707E-1,1.019664597E1,1.023220984E1
3.817045708E0,-4.481680298E-1,-7.229965210E-1,1.011761032E1,1.015330573E1
3.827031708E0,-4.167333984E-1,-7.174580383E-1,1.008243347E1,1.011651509E1
3.837018708E0,-4.092489624E-1,-7.093748474E-1,1.008183472E1,1.011504269E1
3.847004708E0,-4.026626587E-1,-7.153623962E-1,1.011341904E1,1.014668050E1
3.856991708E0,-4.352947998E-1,-7.367678833E-1,1.011820908E1,1.015433225E1
3.866977708E0,-4.287084961E-1,-7.650590515E-1,1.014275803E1,1.018060149E1
3.876964708E0,-3.881428528E-1,-7.170089722E-1,1.017688705E1,1.020949494E1
3.886950708E0,-3.549119568E-1,-6.134243774E-1,1.016910324E1,1.019376833E1
3.896937708E0,-3.276686096E-1,-5.432203674E-1,1.016102005E1,1.018080466E1
3.906924708E0,-2.953358459E-1,-5.804928589E-1,1.013542328E1,1.015632809E1
3.916910708E0,-2.863545227E-1,-5.388793945E-1,1.023272095E1,1.025090083E1
3.926897708E0,-2.782713318E-1,-5.252577209E-1,1.026535309E1,1.028254855E1
3.936883708E0,-2.799179077E-1,-4.701722717E-1,1.012210098E1,1.013688040E1
3.946870708E0,-2.595602417E-1,-4.837939453E-1,9.945318604E0,9.960461346E0
3.956856708E0,-1.969903564E-1,-4.701722717E-1,9.762548676E0,9.775849007E0
3.966843708E0,-1.489402771E-1,-4.749623108E-1,9.686656494E0,9.699437429E0
3.976829708E0,-1.936972046E-1,-4.647834778E-1,9.569899292E0,9.583136999E0
3.986816708E0,-1.164578247E-1,-5.345384216E-1,9.468410339E0,9.484202028E0
3.996802708E0,9.131011963E-3,-5.487588501E-1,9.402247925E0,9.418252794E0
4.006789708E0,7.185058594E-2,-4.596940613E-1,9.373507690E0,9.385048085E0
4.016775708E0,8.382568359E-2,-3.722758484E-1,9.505383453E0,9.513040032E0
4.026762708E0,8.487350464E-2,-3.649411011E-1,9.672286377E0,9.679540758E0
4.036748708E0,3.517684937E-2,-4.086502075E-1,9.733359375E0,9.741997594E0
4.046735708E0,-5.343887329E-2,-4.369413757E-1,9.639504547E0,9.649550321E0
4.056722708E0,-1.204994202E-1,-4.608915710E-1,9.609566803E0,9.621367641E0
4.066708667E0,-1.532812500E-1,-5.529501343E-1,9.720336456E0,9.737257818E0
4.076695667E0,-2.927911377E-1,-5.926176453E-1,9.700128479E0,9.722623866E0
4.086681667E0,-3.613485718E-1,-4.775070190E-1,9.715995483E0,9.734431364E0
4.096668667E0,-3.465293884E-1,-3.824546814E-1,9.822274475E0,9.835823812E0
4.106654667E0,-3.089575195E-1,-3.152444458E-1,9.831405487E0,9.841309245E0
4.116641667E0,-3.210823059E-1,-3.713777161E-1,9.792636108E0,9.804934330E0
4.126627667E0,-3.454815674E-1,-5.034031677E-1,9.818232880E0,9.837198236E0
4.136614667E0,-3.855981445E-1,-5.390290833E-1,1.001941452E1,1.004130995E1
4.146600667E0,-4.508624268E-1,-5.264552307E-1,9.876312103E0,9.900604668E0
4.156587667E0,-4.541555786E-1,-5.272036743E-1,9.746382294E0,9.771190757E0
4.166573667E0,-4.540058899E-1,-5.411247253E-1,9.657018127E0,9.682816555E0
4.176560667E0,-4.846920776E-1,-5.451663208E-1,9.458381195E0,9.486469710E0
4.186546667E0,-5.057981873E-1,-5.908213806E-1,9.277108154E0,9.309652916E0
4.196533667E0,-5.237608337E-1,-5.897735596E-1,9.096882935E0,9.131015135E0
4.206519667E0,-5.474116516E-1,-5.739065552E-1,8.796457672E0,8.832139935E0
4.216506667E0,-5.616320801E-1,-6.071374512E-1,8.579259338E0,8.619033430E0
4.226493667E0,-5.900729370E-1,-6.083349609E-1,8.461154938E0,8.503493422E0
4.236479667E0,-6.270460510E-1,-5.999523926E-1,8.338260498E0,8.383299932E0
4.246466667E0,-6.409671021E-1,-6.234535217E-1,8.326584778E0,8.374458023E0
4.256452667E0,-6.544390869E-1,-6.337820435E-1,8.284222870E0,8.334165750E0
4.266439667E0,-6.436614990E-1,-6.047424316E-1,8.185877380E0,8.233383388E0
4.276425667E0,-6.198609924E-1,-6.089337158E-1,8.133186951E0,8.179471737E0
4.286412667E0,-6.438111877E-1,-6.125262451E-1,8.200397186E0,8.248405619E0
4.296398667E0,-6.593788147E-1,-5.783972168E-1,8.314160614E0,8.360298468E0
4.306385667E0,-6.891668701E-1,-5.349874878E-1,8.344248047E0,8.389734087E0
4.316371667E0,-7.553292847E-1,-5.637277222E-1,8.379275208E0,8.432115054E0
4.326358667E0,-7.794291687E-1,-6.007008362E-1,8.450826416E0,8.507926800E0
4.336344667E0,-7.668553162E-1,-4.821473694E-1,8.690478058E0,8.737559272E0
4.346331667E0,-7.367678833E-1,-3.936813354E-1,9.009315033E0,9.047959398E0
4.356317667E0,-7.298822021E-1,-4.739144897E-1,9.316176910E0,9.356734217E0
4.366304667E0,-7.294331360E-1,-5.292993164E-1,9.551337891E0,9.593762868E0
4.376290667E0,-7.014413452E-1,-5.917195129E-1,9.689201202E0,9.732562452E0
4.386277667E0,-6.333329773E-1,-6.590794373E-1,9.815089417E0,9.857559364E0
4.396263667E0,-6.044430542E-1,-6.483018494E-1,9.827962646E0,9.867851665E0
4.406250667E0,-5.813909912E-1,-6.215075684E-1,9.849068756E0,9.885769697E0
4.416237667E0,-5.465135193E-1,-6.270460510E-1,9.922266541E0,9.957069703E0
4.426223667E0,-4.638853455E-1,-5.599855042E-1,9.900561676E0,9.927229970E0
4.436210667E0,-3.685336304E-1,-4.631369019E-1,9.922266541E0,9.939903728E0
4.446196667E0,-2.829116821E-1,-4.317022705E-1,1.008857071E1,1.010176543E1
4.456183667E0,-2.674937439E-1,-3.814068604E-1,1.029409332E1,1.030462913E1
4.466169667E0,-2.565664673E-1,-4.403842163E-1,1.040755737E1,1.042002951E1
4.476156667E0,-3.664379883E-1,-5.360353088E-1,1.054781570E1,1.056778249E1
4.486142667E0,-4.272116089E-1,-5.656736755E-1,1.065229843E1,1.067585867E1
4.496129667E0,-4.260140991E-1,-5.375321960E-1,1.084809128E1,1.086975222E1
4.506115667E0,-4.538562012E-1,-5.258564758E-1,1.102397552E1,1.104583844E1
4.516102667E0,-4.043092346E-1,-5.858816528E-1,1.104178848E1,1.106471040E1
4.526088667E0,-3.908372498E-1,-5.993536377E-1,1.100227066E1,1.102551306E1
4.536075667E0,-3.842509460E-1,-5.551954651E-1,1.084913910E1,1.087012925E1
4.546061667E0,-3.821553040E-1,-4.727169800E-1,1.066352509E1,1.068083664E1
4.556048667E0,-3.595523071E-1,-4.123924255E-1,1.058149567E1,1.059563098E1
4.566034667E0,-3.155438232E-1,-4.290078735E-1,1.060978683E1,1.062314418E1
4.576021667E0,-3.336561584E-1,-4.796026611E-1,1.049527496E1,1.051152423E1
4.586007667E0,-3.929328918E-1,-4.963677979E-1,1.039992325E1,1.041917371E1
4.595994667E0,-4.070036316E-1,-5.026547241E-1,1.035232224E1,1.037250642E1
4.605980667E0,-4.376898193E-1,-5.273533630E-1,1.026310776E1,1.028596397E1
4.615967667E0,-4.903802490E-1,-6.113287354E-1,1.010982651E1,1.014015718E1
4.625953667E0,-5.101391602E-1,-6.825805664E-1,9.954000549E0,9.990409658E0
4.635940667E0,-4.891827393E-1,-7.092251587E-1,9.821675720E0,9.859392174E0
4.645926667E0,-4.321513367E-1,-7.077282715E-1,9.728719025E0,9.763995491E0
4.655913667E0,-4.258644104E-1,-7.171586609E-1,9.679621124E0,9.715489805E0
4.665900667E0,-4.496649170E-1,-7.809260559E-1,9.692045288E0,9.733847436E0
4.675886667E0,-4.634362793E-1,-8.396040344E-1,9.738897858E0,9.786002228E0
4.685873667E0,-4.613406372E-1,-8.587641907E-1,9.781559143E0,9.830015788E0
4.695859667E0,-4.399351501E-1,-8.810678101E-1,9.785451050E0,9.834880562E0
4.705846667E0,-4.257147217E-1,-8.822653198E-1,9.769284668E0,9.818276226E0
4.715832667E0,-4.119433594E-1,-8.461903381E-1,9.759854279E0,9.805125749E0
4.725819667E0,-3.761677551E-1,-8.033793640E-1,9.762249298E0,9.802470706E0
4.735805667E0,-3.695814514E-1,-7.740403748E-1,9.819580078E0,9.856971232E0
4.745792667E0,-4.191284180E-1,-7.512876892E-1,9.863139496E0,9.900586979E0
4.755778667E0,-4.614903259E-1,-7.475454712E-1,9.931846619E0,9.970625598E0
4.765765667E0,-1.025367737E-1,-5.852828979E-1,1.009515701E1,1.011262898E1
4.775751667E0,5.315446472E-1,7.604187012E-2,1.028675858E1,1.030076328E1
4.785738667E0,2.237846375E-1,-1.734892273E-1,1.016880386E1,1.017274545E1
4.795724667E0,-1.941462708E-1,-7.346722412E-1,1.014560211E1,1.017401977E1
4.805711667E0,-3.855981445E-1,-6.318360901E-1,9.921817474E0,9.949390171E0
4.815697667E0,-3.715274048E-1,-4.090992737E-1,9.982740784E0,9.998025224E0
4.825684667E0,-2.398013306E-1,-3.128494263E-1,1.005429199E1,1.006201605E1
4.835670667E0,-1.007405090E-1,-2.480342102E-1,9.884994049E0,9.888618557E0
4.845657667E0,3.652404785E-2,-2.345622253E-1,9.615704041E0,9.618633876E0
4.855643667E0,8.831634521E-3,-3.315605164E-1,9.524244232E0,9.530017763E0
4.865630667E0,-5.435197449E-1,-6.843768311E-1,9.561367035E0,9.601225179E0
4.875616667E0,-1.528770905E0,-1.618284760E0,9.390272827E0,9.650554896E0
4.885603667E0,-1.242715759E0,-1.335522766E0,1.028406418E1,1.044461294E1
4.895589667E0,-4.668791199E-1,-1.381626892E-1,1.007779312E1,1.008954802E1
4.905576667E0,1.658551025E-1,-1.809736633E-1,9.407636719E0,9.410838858E0
4.915562667E0,-7.544311523E-2,-8.455915833E-1,9.432335358E0,9.470462876E0
4.925549667E0,-3.240760803E-1,-9.042695618E-1,9.144334259E0,9.194649411E0
4.935535667E0,-5.263055420E-1,-7.423063660E-1,9.365274811E0,9.409377692E0
4.945522667E0,-6.668632507E-1,-7.424560547E-1,9.519005127E0,9.571175800E0
4.955508667E0,-6.457571411E-1,-7.542814636E-1,9.505084076E0,9.556807317E0
4.965495667E0,-6.804849243E-1,-7.116201782E-1,9.697284393E0,9.747142536E0
4.975481667E0,-6.668632507E-1,-6.105802917E-1,9.810748444E0,9.852324594E0
4.985468667E0,-6.505471802E-1,-5.513035583E-1,9.917925568E0,9.954516302E0
4.995454667E0,-6.842271423E-1,-5.623805237E-1,1.000848724E1,1.004759949E1
5.005441667E0,-7.101232910E-1,-5.495072937E-1,1.005923172E1,1.009922651E1
5.015427667E0,-5.569917297E-1,-3.300636292E-1,9.995464325E0,1.001641098E1
5.025414667E0,-7.975415039E-1,5.298980713E-2,9.875264282E0,9.907558984E0
5.035400667E0,-8.593629456E-1,-9.936337280E-1,9.638307037E0,9.727423873E0
5.045387667E0,-9.142987061E-1,-6.319857788E-1,1.020338196E1,1.026373965E1
5.055373667E0,-6.150709534E-1,-5.563929749E-1,9.023385773E0,9.061422417E0
5.065360542E0,-6.182144165E-1,-4.263134766E-1,1.002420456E1,1.005229373E1
5.075346542E0,-5.715115356E-1,-5.102888489E-1,9.881102142E0,9.910761812E0
5.085333542E0,-6.508465576E-1,-6.252497864E-1,9.513616333E0,9.556329540E0
5.095319542E0,-6.593788147E-1,-6.568341064E-1,9.883646851E0,9.927370575E0
5.105306542E0,-6.831793213E-1,-6.045927429E-1,9.803413696E0,9.845769979E0
5.115292542E0,-6.463558960E-1,-5.532495117E-1,9.587861938E0,9.625536739E0
5.125279542E0,-5.998027039E-1,-5.140310669E-1,9.632319489E0,9.664655708E0
5.135265542E0,-5.864804077E-1,-5.035528564E-1,9.703571320E0,9.734311537E0
5.145252542E0,-5.441184998E-1,-4.584965515E-1,9.610315247E0,9.636619904E0
5.155238542E0,-5.810916138E-1,-4.667294312E-1,9.774823151E0,9.803197002E0
5.165225542E0,-5.595364380E-1,-5.019062805E-1,9.824968872E0,9.853679733E0
5.175211542E0,-5.201683044E-1,-5.089416504E-1,9.716743927E0,9.743957574E0
5.185198542E0,-4.960684204E-1,-4.343966675E-1,9.707463226E0,9.729831789E0
5.195185542E0,-4.799020386E-1,-4.096980286E-1,9.683513031E0,9.704049828E0
5.205171542E0,-4.222718811E-1,-4.490661621E-1,9.702523499E0,9.722084972E0
5.215158542E0,-4.257147217E-1,-4.960684204E-1,9.784852295E0,9.806663619E0
5.225144542E0,-4.376898193E-1,-4.736151123E-1,9.710307312E0,9.731698297E0
5.235130542E0,-4.703219604E-1,-4.005670166E-1,9.666149139E0,9.685870940E0
5.245117542E0,-4.370910645E-1,-3.350033569E-1,9.731563110E0,9.747132728E0
5.255103542E0,-2.399510193E-1,-5.701643372E-1,9.522298279E0,9.542370165E0
5.265090542E0,-3.098556519E-1,-5.878276062E-1,9.555678864E0,9.578755157E0
5.275076542E0,-4.125421143E-1,-2.769241333E-1,9.723779297E0,9.736465569E0
5.285063542E0,-4.296066284E-1,-3.415896606E-1,9.732461243E0,9.747925276E0
5.295049542E0,-2.963836670E-1,-3.161425781E-1,9.349407806E0,9.359445269E0
5.305036542E0,-1.880090332E-1,-2.636018372E-1,1.022897873E1,1.023410178E1
5.315022542E0,-2.968327332E-1,-3.719764709E-1,9.881102142E0,9.892555570E0
5.325009542E0,-2.841091919E-1,-4.349954224E-1,9.860594788E0,9.874273068E0
5.334995542E0,-2.745291138E-1,-3.855981445E-1,9.810299377E0,9.821711971E0
5.344982542E0,-2.677931213E-1,-4.007167053E-1,9.759255524E0,9.771149135E0
5.354969542E0,-2.571652222E-1,-4.480183411E-1,9.667795715E0,9.681587080E0
5.364955542E0,-2.541714478E-1,-4.882846069E-1,9.654473419E0,9.670154186E0
5.374941542E0,-3.083587646E-1,-5.466632080E-1,9.600136414E0,9.620631214E0
5.384928542E0,-2.650987244E-1,-4.779560852E-1,9.519454193E0,9.535131226E0
5.394914542E0,-2.160008240E-1,-3.438349915E-1,9.562863922E0,9.571480828E0
5.404901542E0,-1.872605896E-1,-2.968327332E-1,9.766590271E0,9.772894235E0
5.414887542E0,-2.094145203E-1,-2.664459229E-1,1.006342300E1,1.006912759E1
5.424874542E0,-2.408491516E-1,-2.502795410E-1,1.003423370E1,1.004024373E1
5.434860542E0,-2.603086853E-1,-2.680924988E-1,9.957892456E0,9.964901222E0
5.444847542E0,-2.948867798E-1,-2.305206299E-1,9.965526581E0,9.972553234E0
5.454833542E0,-2.962339783E-1,-2.273771667E-1,9.923014984E0,9.930039341E0
5.464820542E0,-2.820135498E-1,-2.258802795E-1,1.007420059E1,1.008067811E1
5.474806542E0,-2.790197754E-1,-2.131567383E-1,1.016491196E1,1.017097453E1
5.484793542E0,-2.969824219E-1,-1.850152588E-1,1.008916946E1,1.009523500E1
5.494779542E0,-3.309617615E-1,-1.523831177E-1,9.973011017E0,9.979664576E0
5.504766542E0,-3.186872864E-1,-1.453477478E-1,9.763147430E0,9.769428607E0
5.514752542E0,-3.441343689E-1,-2.344125366E-1,9.490115204E0,9.499245459E0
5.524739542E0,-4.058061218E-1,-3.501219177E-1,9.402098236E0,9.417362434E0
5.534725542E0,-4.682263184E-1,-3.523672485E-1,9.344767456E0,9.363123270E0
5.544712542E0,-5.436694336E-1,-3.376977539E-1,9.390272827E0,9.412058223E0
5.554698542E0,-6.075865173E-1,-3.218307495E-1,9.435179443E0,9.460198071E0
5.564685542E0,-6.599775696E-1,-3.284170532E-1,9.515562286E0,9.544074276E0
5.574671542E0,-6.756948853E-1,-3.809577942E-1,9.573641510E0,9.605014533E0
5.584658542E0,-7.000941467E-1,-3.927832031E-1,9.688602448E0,9.721801677E0
5.594644542E0,-7.538323975E-1,-3.980223083E-1,9.758806458E0,9.795967972E0
5.604631542E0,-7.289840698E-1,-4.421804810E-1,9.775571594E0,9.812682678E0
5.614617542E0,-7.113208008E-1,-4.448748779E-1,9.891131287E0,9.926649438E0
5.624604542E0,-6.716532898E-1,-4.249662781E-1,9.958940277E0,9.990605884E0
5.634590542E0,-6.460565186E-1,-4.355941772E-1,9.926757202E0,9.957290789E0
5.644577542E0,-6.342311096E-1,-4.888833618E-1,9.788594513E0,9.821295158E0
5.654563542E0,-6.496490479E-1,-4.815486145E-1,9.632768555E0,9.666652108E0
5.664550542E0,-6.668632507E-1,-4.567002869E-1,9.569001160E0,9.603075806E0
5.674536542E0,-6.692582703E-1,-4.643344116E-1,9.577234039E0,9.611811740E0
5.684523542E0,-6.698570251E-1,-4.773573303E-1,9.584269409E0,9.619500952E0
5.694509542E0,-6.227050781E-1,-4.812492371E-1,9.593699799E0,9.625925320E0
5.704496542E0,-5.860313416E-1,-4.649331665E-1,9.521400146E0,9.550741140E0
5.714482542E0,-5.631289673E-1,-4.411326599E-1,9.487869873E0,9.514798316E0
5.724469542E0,-5.376818848E-1,-4.317022705E-1,9.532028046E0,9.556936084E0
5.734455542E0,-5.372328186E-1,-4.569996643E-1,9.530381470E0,9.556444880E0
5.744442542E0,-5.150788879E-1,-3.920347595E-1,9.551936646E0,9.573844118E0
5.754428542E0,-5.046006775E-1,-3.646417236E-1,9.592053223E0,9.612235456E0
5.764415542E0,-4.776567078E-1,-2.541714478E-1,9.508676605E0,9.524058475E0
5.774401542E0,-4.355941772E-1,-2.079176331E-1,9.532626801E0,9.544838697E0
5.784388542E0,-3.706292725E-1,-2.365081787E-1,9.550888824E0,9.561003060E0
5.794374542E0,-3.710783386E-1,-2.074685669E-1,9.685608673E0,9.694934642E0
5.804361542E0,-3.315605164E-1,-2.365081787E-1,9.724378052E0,9.732902804E0
5.814347542E0,-2.769241333E-1,-1.806742859E-1,9.937385101E0,9.942884532E0
5.824334542E0,-2.772235107E-1,-1.134640503E-1,9.838141479E0,9.842700581E0
5.834320542E0,-3.034190369E-1,-1.601669312E-1,9.786049805E0,9.792062466E0
5.844307542E0,-3.016227722E-1,-2.180964661E-1,9.717043304E0,9.724169525E0
5.854293542E0,-3.064128113E-1,-2.351609802E-1,9.754615173E0,9.762259302E0
5.864280542E0,-3.070115662E-1,-3.103047180E-1,9.845027161E0,9.854699636E0
5.874266542E0,-3.031196594E-1,-3.005749512E-1,9.879006500E0,9.888225132E0
5.884252542E0,-3.037184143E-1,-2.782713318E-1,9.624835052E0,9.633645706E0
5.894239542E0,-2.758763123E-1,-2.598596191E-1,9.615704041E0,9.623169902E0
5.904225542E0,-2.772235107E-1,-2.685415649E-1,9.657167816E0,9.664877530E0
5.914212542E0,-2.643502808E-1,-2.896476746E-1,9.601184235E0,9.609189120E0
5.924198542E0,-2.659968567E-1,-2.665956116E-1,9.643995209E0,9.651345561E0
5.934185542E0,-2.694396973E-1,-3.074606323E-1,9.723330231E0,9.731920703E0
5.944171542E0,-2.796185303E-1,-3.354524231E-1,9.753717041E0,9.763488668E0
5.954158542E0,-2.875520325E-1,-2.549198914E-1,9.826016693E0,9.833528074E0
5.964144542E0,-2.634521484E-1,-2.698887634E-1,9.794731750E0,9.801990463E0
5.974131542E0,-2.700384521E-1,-3.049159241E-1,9.778864746E0,9.787343368E0
5.984117542E0,-3.115022278E-1,-2.923420715E-1,9.820777588E0,9.830064596E0
5.994104542E0,-3.180885315E-1,-2.680924988E-1,9.753866730E0,9.762733740E0
6.004090542E0,-2.573149109E-1,-2.742297363E-1,9.653425598E0,9.660747315E0
6.014077542E0,-2.197430420E-1,-2.417472839E-1,9.690847778E0,9.696352893E0
6.024063542E0,-2.251318359E-1,-2.272274780E-1,9.819580078E0,9.824788526E0
6.034050542E0,-2.101629639E-1,-2.463876343E-1,9.809251556E0,9.814595837E0
6.044036542E0,-2.878514099E-1,-2.947370911E-1,9.885592804E0,9.894173713E0
6.054023542E0,-3.092568970E-1,-2.656974792E-1,9.822573853E0,9.831032096E0
6.064009292E0,-2.549198914E-1,-2.977308655E-1,9.823471985E0,9.831288301E0
6.073996292E0,-2.357597351E-1,-3.131488037E-1,9.946815491E0,9.954535812E0
6.083982292E0,-2.820135498E-1,-2.758763123E-1,9.877509613E0,9.885384946E0
6.093969292E0,-2.954855347E-1,-2.725831604E-1,9.784253540E0,9.792508903E0
6.103955292E0,-2.859054565E-1,-2.622546387E-1,9.723030853E0,9.730768130E0
6.113942292E0,-2.826123047E-1,-2.462379456E-1,9.718091125E0,9.725317371E0
6.123928292E0,-2.921923828E-1,-2.525248718E-1,9.779613190E0,9.787235531E0
6.133915292E0,-3.185375977E-1,-2.914439392E-1,9.804611206E0,9.814112628E0
6.143901292E0,-3.350033569E-1,-3.571572876E-1,9.743837585E0,9.756134453E0
6.153887292E0,-3.414399719E-1,-3.830534363E-1,9.732910309E0,9.746427770E0
6.163874292E0,-3.071612549E-1,-4.022135925E-1,9.805359650E0,9.818411362E0
6.173860292E0,-3.053649902E-1,-4.011657715E-1,9.855205994E0,9.868093379E0
6.183847292E0,-3.382965088E-1,-4.108955383E-1,9.888436890E0,9.902750315E0
6.193833292E0,-3.698808289E-1,-3.797602844E-1,9.893975372E0,9.908167256E0
6.203820292E0,-3.923341370E-1,-3.772155762E-1,9.838141479E0,9.853184533E0
6.213806292E0,-3.969744873E-1,-4.011657715E-1,9.768985291E0,9.785274464E0
6.223793292E0,-4.065545654E-1,-3.963757324E-1,9.707912292E0,9.724503145E0
6.233779292E0,-3.712280273E-1,-3.942800903E-1,9.667795715E0,9.682951050E0
6.243766292E0,-3.650907898E-1,-3.899391174E-1,9.663155365E0,9.677908628E0
6.253752292E0,-3.818559265E-1,-4.037104797E-1,9.721833344E0,9.737701970E0
6.263739292E0,-3.923341370E-1,-3.990701294E-1,9.809850311E0,9.825800027E0
6.273725292E0,-4.132905579E-1,-3.852987671E-1,9.848470001E0,9.864665508E0
6.283712292E0,-4.177812195E-1,-3.447331238E-1,9.861043854E0,9.875908463E0
6.293698292E0,-3.860472107E-1,-3.016227722E-1,9.949809265E0,9.961862936E0
6.303685292E0,-3.403921509E-1,-2.815644836E-1,9.972711639E0,9.982490812E0
6.313671292E0,-3.832031250E-1,-2.421963501E-1,9.924960938E0,9.935308416E0
6.323658292E0,-4.153862000E-1,-2.444416809E-1,9.874216461E0,9.885972292E0
6.333644292E0,-4.228706360E-1,-2.588117981E-1,9.878856812E0,9.891289856E0
6.343631292E0,-4.403842163E-1,-2.716850281E-1,9.913434906E0,9.926930172E0
6.353617292E0,-4.546046448E-1,-2.860551453E-1,9.923913116E0,9.938437728E0
6.363603292E0,-4.665797424E-1,-2.769241333E-1,9.897418213E0,9.912278795E0
6.373590292E0,-4.677772522E-1,-2.610571289E-1,9.820178833E0,9.834779036E0
6.383576292E0,-4.809498596E-1,-2.579136658E-1,9.715995483E0,9.731310316E0
6.393563292E0,-4.779560852E-1,-2.137554932E-1,9.657018127E0,9.671201194E0
6.403549292E0,-4.881349182E-1,-2.198927307E-1,9.595795441E0,9.610718946E0
6.413536292E0,-5.225633240E-1,-2.751278687E-1,9.633966064E0,9.652050036E0
6.423522292E0,-5.733078003E-1,-3.409909058E-1,9.705666962E0,9.728562474E0
6.433509292E0,-5.445675659E-1,-3.932322693E-1,9.786349182E0,9.809373872E0
6.443495292E0,-5.221142578E-1,-3.577560425E-1,9.820328522E0,9.840703479E0
6.453482292E0,-5.161267090E-1,-3.191363525E-1,9.780960388E0,9.799766370E0
6.463468292E0,-4.736151123E-1,-3.019221497E-1,9.782457275E0,9.798568192E0
6.473455292E0,-4.388873291E-1,-3.338058472E-1,9.807305603E0,9.822794492E0
6.483441292E0,-4.592449951E-1,-3.077600098E-1,9.847122803E0,9.862628944E0
6.493428292E0,-4.670288086E-1,-2.906954956E-1,9.904154205E0,9.919419857E0
6.503414292E0,-4.613406372E-1,-2.805166626E-1,9.930050354E0,9.944718438E0
6.513401292E0,-4.599934387E-1,-2.441423035E-1,9.940678253E0,9.954309798E0
6.523387292E0,-4.751119995E-1,-2.025288391E-1,9.897567902E0,9.911034240E0
6.533374292E0,-4.209246826E-1,-1.932481384E-1,9.867630157E0,9.878494185E0
6.543360292E0,-3.597019958E-1,-1.757345581E-1,9.811347198E0,9.819511292E0
6.553346292E0,-3.017724609E-1,-2.163002014E-1,9.826615448E0,9.833627182E0
6.563333292E0,-2.597099304E-1,-2.218386841E-1,9.835297394E0,9.841226370E0
6.573319292E0,-2.402503967E-1,-2.091151428E-1,9.795031128E0,9.800208375E0
6.583306292E0,-2.718347168E-1,-2.026785278E-1,9.759255524E0,9.765144191E0
6.593292292E0,-3.216810608E-1,-2.445913696E-1,9.720635834E0,9.729032051E0
6.603279292E0,-3.047662354E-1,-3.296145630E-1,9.627230072E0,9.637690962E0
6.613265292E0,-2.960842896E-1,-3.752696228E-1,9.569300537E0,9.581231965E0
6.623252292E0,-2.796185303E-1,-3.031196594E-1,9.567354584E0,9.576238394E0
6.633238292E0,-2.562670898E-1,-1.960922241E-1,9.770033112E0,9.775360453E0
6.643225292E0,-2.915936279E-1,-3.504212952E-1,9.520801392E0,9.531709242E0
6.653211292E0,-3.254232788E-1,-4.441264343E-1,9.526489563E0,9.542387122E0
6.663198292E0,-3.806584167E-1,-4.293072510E-1,9.656269684E0,9.673300872E0
6.673184292E0,-4.004173279E-1,-4.501139832E-1,9.554631042E0,9.573604911E0
6.683170292E0,-3.852987671E-1,-4.869374084E-1,9.554780731E0,9.574935927E0
6.693157292E0,-3.911366272E-1,-5.292993164E-1,9.598040771E0,9.620578583E0
6.703143292E0,-3.671864319E-1,-6.030958557E-1,9.595346375E0,9.621290066E0
6.713130292E0,-3.567082214E-1,-5.959107971E-1,9.548793182E0,9.574017008E0
6.723116292E0,-3.978726196E-1,-6.002517700E-1,9.665400696E0,9.692191466E0
6.733103292E0,-4.556524658E-1,-6.297404480E-1,9.734856262E0,9.765839372E0
6.743089292E0,-4.764591980E-1,-6.297404480E-1,9.649384003E0,9.681642321E0
6.753076292E0,-4.203259277E-1,-6.186634827E-1,9.628577271E0,9.657583479E0
6.763062292E0,-4.029620361E-1,-6.047424316E-1,9.508676605E0,9.536405119E0
6.773049292E0,-3.965254211E-1,-6.271957397E-1,9.449699249E0,9.478788045E0
6.783035292E0,-3.734733582E-1,-6.679110718E-1,9.565857697E0,9.596417093E0
6.793022292E0,-3.588038635E-1,-6.800358582E-1,9.597292328E0,9.628042844E0
6.803008292E0,-5.029541016E-1,-9.352551270E-1,9.769883423E0,9.827425252E0
6.812994292E0,-6.385720825E-1,-3.155438232E-1,9.326655121E0,9.353814086E0
6.822981292E0,-3.053649902E-1,-6.738986206E-1,9.625134430E0,9.653527849E0
6.832967292E0,-4.825964355E-1,-6.688092041E-1,9.727222137E0,9.762123518E0
6.842954292E0,-3.143463135E-1,-6.219566345E-1,9.679321747E0,9.704375979E0
6.852940292E0,-3.911366272E-1,-5.381309509E-1,9.966873779E0,9.989051292E0
6.862927292E0,-3.149450684E-1,-5.924679565E-1,1.016191818E1,1.018404585E1
6.872913292E0,-3.323089600E-1,-6.253994751E-1,9.874216461E0,9.899581025E0
6.882900292E0,-3.138972473E-1,-6.671626282E-1,9.742191010E0,9.770052360E0
6.892886292E0,-2.643502808E-1,-7.111711121E-1,9.701026611E0,9.730650684E0
6.902873292E0,-2.826123047E-1,-7.304809570E-1,9.804311829E0,9.835547904E0
6.912859292E0,-2.673440552E-1,-6.688092041E-1,9.797276459E0,9.823716435E0
6.922846292E0,-3.448828125E-1,-6.518943787E-1,9.961634674E0,9.988897628E0
6.932832292E0,-4.284091187E-1,-7.080276489E-1,9.886640625E0,9.921214662E0
6.942818292E0,-4.959187317E-1,-6.972500610E-1,9.859097900E0,9.896156044E0
6.952805292E0,-5.560935974E-1,-1.038390656E0,1.039004379E1,1.045660104E1
6.962791292E0,-5.185217285E-1,-1.496288452E0,1.133592682E1,1.144600283E1
6.972778292E0,-3.914360046E-1,-1.362317047E0,1.120045853E1,1.128979190E1
6.982764292E0,-4.460723877E-1,-7.993377686E-1,1.034543655E1,1.038585475E1
6.992751292E0,-5.816903687E-1,-4.165837097E-1,9.748777313E0,9.774996919E0
7.002737292E0,-5.583389282E-1,-5.447172546E-1,9.245823212E0,9.278669415E0
7.012724292E0,-5.204676819E-1,-7.583230591E-1,9.539961548E0,9.584195679E0
7.022710292E0,-4.887336731E-1,-8.385562134E-1,9.724976807E0,9.773290695E0
7.032697292E0,-4.722679138E-1,-8.023315430E-1,9.626032562E0,9.670950097E0
7.042683292E0,-4.833448792E-1,-7.229965210E-1,9.567055206E0,9.606502567E0
7.052670292E0,-5.301974487E-1,-6.297404480E-1,9.617350616E0,9.652518596E0
7.062655792E0,-4.776567078E-1,-5.944139099E-1,9.616901550E0,9.647086568E0
7.072641792E0,-4.632865906E-1,-5.192701721E-1,9.724827118E0,9.749694275E0
7.082628792E0,-4.439767456E-1,-4.486170959E-1,9.790091400E0,9.810416009E0
7.092614792E0,-4.315525818E-1,-4.550537109E-1,9.774374084E0,9.794472944E0
7.102601792E0,-4.348457336E-1,-4.507127380E-1,9.854906616E0,9.874786944E0
7.112587792E0,-3.929328918E-1,-5.081932068E-1,9.842632141E0,9.863572581E0
7.122574792E0,-3.367996216E-1,-5.484594727E-1,9.749675446E0,9.770896227E0
7.132560792E0,-3.251239014E-1,-5.153782654E-1,9.779164124E0,9.798131009E0
7.142547792E0,-3.481759644E-1,-5.038522339E-1,9.818083191E0,9.837166824E0
7.152533792E0,-3.947291565E-1,-5.536985779E-1,9.848769379E0,9.872216139E0
7.162520792E0,-4.126918030E-1,-5.682183838E-1,9.968220978E0,9.992928305E0
7.172506792E0,-4.352947998E-1,-5.601351929E-1,9.880952454E0,9.906384527E0
7.182492792E0,-4.796026611E-1,-4.755610657E-1,9.810898132E0,9.834119137E0
7.192479792E0,-5.122348022E-1,-4.607418823E-1,9.801168365E0,9.825353373E0
7.202465792E0,-5.158273315E-1,-4.788542175E-1,9.742640076E0,9.768030244E0
7.212452792E0,-5.138813782E-1,-4.752616882E-1,9.784403229E0,9.809408458E0
7.222438792E0,-5.168751526E-1,-5.123844910E-1,9.820627899E0,9.847559602E0
7.232425792E0,-5.545967102E-1,-5.053491211E-1,9.826765137E0,9.855367487E0
7.242411792E0,-5.481600952E-1,-4.749623108E-1,9.788444824E0,9.815279964E0
7.252398792E0,-5.224136353E-1,-4.108955383E-1,9.730215912E0,9.752889461E0
7.262384792E0,-5.423222351E-1,-2.878514099E-1,9.667945404E0,9.687421751E0
7.272371792E0,-6.042933655E-1,-2.368075562E-1,9.720486145E0,9.742130115E0
7.282357792E0,-6.845265198E-1,-2.276765442E-1,9.783355408E0,9.809916218E0
7.292343792E0,-7.695497131E-1,-2.444416809E-1,9.909542999E0,9.942384068E0
7.302330792E0,-7.891589355E-1,-2.345622253E-1,9.985584869E0,1.001946588E1
7.312316792E0,-7.888595581E-1,-2.884501648E-1,9.998009033E0,1.003322917E1
7.322303792E0,-7.985893250E-1,-3.100053406E-1,9.953850861E0,9.990645383E0
7.332289792E0,-7.795788574E-1,-3.481759644E-1,9.782157898E0,9.819347373E0
7.342276792E0,-7.542814636E-1,-3.573069763E-1,9.663005676E0,9.698983839E0
7.352262792E0,-7.325765991E-1,-3.080593872E-1,9.678423615E0,9.710996484E0
7.362249792E0,-7.282356262E-1,-2.245330811E-1,9.733958130E0,9.763743294E0
7.372235792E0,-7.782316589E-1,-1.945953369E-1,9.812844086E0,9.845578749E0
7.382221792E0,-8.878038025E-1,-2.064207458E-1,9.821675720E0,9.863879514E0
7.392208792E0,-9.198371887E-1,-2.344125366E-1,9.804611206E0,9.850454334E0
7.402194792E0,-9.578581238E-1,-2.456391907E-1,9.790690155E0,9.840500216E0
7.412181792E0,-9.559121704E-1,-2.002835083E-1,9.659562836E0,9.708812272E0
7.422167792E0,-9.677375793E-1,-1.136137390E-1,9.827214203E0,9.875401921E0
7.432154792E0,-9.930349731E-1,-3.996688843E-2,9.923314362E0,9.972957622E0
7.442140792E0,-1.078058167E0,1.437011719E-2,9.838740234E0,9.897637360E0
7.452127792E0,-1.146914978E0,-1.526824951E-2,9.791139221E0,9.858095878E0
7.462113792E0,-1.151255951E0,-1.345701599E-1,9.712552643E0,9.781471169E0
7.472100792E0,-1.114582214E0,-1.845661926E-1,9.639354858E0,9.705334630E0
7.482086792E0,-1.122216339E0,-1.420545959E-1,9.626331940E0,9.692564967E0
7.492072792E0,-1.163829803E0,-1.178050232E-1,9.470655670E0,9.542625250E0
7.502059792E0,-1.235081635E0,-1.589694214E-1,9.405541077E0,9.487618293E0
7.512045792E0,-1.230141907E0,-1.730401611E-1,9.521699524E0,9.602393130E0
7.522032792E0,-1.146615601E0,-4.146377563E-2,9.694140930E0,9.761803878E0
7.532018792E0,-1.107397156E0,9.669891357E-2,9.770182800E0,9.833216721E0
7.542005792E0,-1.164428558E0,1.309776306E-1,9.717043304E0,9.787439889E0
7.551991792E0,-1.283281403E0,1.170565796E-1,9.648785248E0,9.734452741E0
7.561978792E0,-1.364412689E0,1.901046753E-2,9.560019836E0,9.656912688E0
7.571964792E0,-1.466201019E0,-2.170486450E-2,9.515412598E0,9.627735634E0
7.581950792E0,-1.472937012E0,3.622467041E-2,9.517208862E0,9.630582547E0
7.591937792E0,-1.406924286E0,8.711883545E-2,9.540560303E0,9.644133788E0
7.601923792E0,-1.351838837E0,5.703140259E-2,9.618697815E0,9.713396341E0
7.611910792E0,-1.341959381E0,1.047821045E-2,9.736652527E0,9.828701196E0
7.621896792E0,-1.394500122E0,-2.844085693E-3,9.697883148E0,9.797631154E0
7.631883792E0,-1.464105377E0,-3.787124634E-2,9.653275909E0,9.763747978E0
7.641869792E0,-1.534010010E0,-7.140151978E-2,9.649683380E0,9.771114277E0
7.651856792E0,-1.555116119E0,-5.912704468E-2,9.595046997E0,9.720432554E0
7.661842792E0,-1.505868530E0,-5.224136353E-2,9.515412598E0,9.633973536E0
7.671828792E0,-1.490151215E0,6.286926270E-3,9.512867889E0,9.628875617E0
7.681815792E0,-1.467099152E0,4.385879517E-2,9.632768555E0,9.743948560E0
7.691801792E0,-1.467847595E0,1.302291870E-2,9.700278168E0,9.810715707E0
7.701788792E0,-1.461710358E0,7.334747314E-3,9.805359650E0,9.913714179E0
7.711774792E0,-1.444645844E0,7.514373779E-2,9.748777313E0,9.855521665E0
7.721761792E0,-1.449435883E0,1.859133911E-1,9.504485321E0,9.616167084E0
7.731747792E0,-1.445993042E0,1.847158813E-1,9.361831970E0,9.474645834E0
7.741734792E0,-1.479673004E0,9.011260986E-2,9.299561462E0,9.416973817E0
7.751720792E0,-1.548230438E0,-2.709365845E-2,9.256451111E0,9.385075318E0
7.761706792E0,-1.581012268E0,-6.361770630E-2,9.297316132E0,9.430998582E0
7.771693792E0,-1.593885498E0,-7.499404907E-2,9.600286102E0,9.731987892E0
7.781679792E0,-1.627116394E0,-1.095721436E-1,9.886041870E0,1.001964758E1
7.791666792E0,-1.683848419E0,-1.697470093E-1,1.009410919E1,1.023499877E1
7.801652792E0,-1.709145813E0,-2.459385681E-1,1.017628830E1,1.032174931E1
7.811639792E0,-1.703457642E0,-2.097138977E-1,1.010533585E1,1.025005173E1
7.821625792E0,-1.757944336E0,-3.472778320E-2,9.950707397E0,1.010485784E1
7.831611792E0,-1.762584686E0,1.751358032E-2,9.727222137E0,9.885639181E0
7.841598792E0,-1.769620056E0,-1.526824951E-2,9.536069641E0,9.698887177E0
7.851584792E0,-1.755998383E0,-4.311035156E-2,9.541458435E0,9.701794571E0
7.861571792E0,-1.705403595E0,-8.981323242E-3,9.643695831E0,9.793331985E0
7.871557792E0,-1.656904449E0,7.035369873E-2,9.717342682E0,9.857841082E0
7.881544792E0,-1.636097717E0,1.052311707E-1,9.662706299E0,9.800805189E0
7.891530792E0,-1.581161957E0,1.261875916E-1,9.570348358E0,9.700905326E0
7.901517792E0,-1.536255341E0,1.119671631E-1,9.469907227E0,9.594360844E0
7.911503792E0,-1.506467285E0,1.296304321E-1,9.422755280E0,9.543299471E0
7.921489792E0,-1.492396545E0,1.221459961E-1,9.442065125E0,9.560060717E0
7.931476792E0,-1.468745728E0,1.255888367E-1,9.549242249E0,9.662350340E0
7.941462792E0,-1.475781097E0,9.310638428E-2,9.652677155E0,9.765284169E0
7.951449792E0,-1.561253357E0,3.442840576E-2,9.759854279E0,9.883999843E0
7.961435792E0,-1.563798065E0,-1.437011719E-2,9.826465759E0,9.950130663E0
7.971422792E0,-1.548230438E0,-1.062789917E-2,9.779164124E0,9.900968710E0
7.981408792E0,-1.541195068E0,2.619552612E-2,9.669442291E0,9.791531171E0
7.991395792E0,-1.562301178E0,3.592529297E-2,9.662855988E0,9.788404438E0
8.001381792E0,-1.581611023E0,4.595443726E-2,9.725874939E0,9.853742871E0
8.011367792E0,-1.604812775E0,6.511459351E-2,9.656269684E0,9.788932943E0
8.021354792E0,-1.634451141E0,5.134323120E-2,9.630223846E0,9.768074426E0
8.031340792E0,-1.661993866E0,5.987548828E-2,9.641600189E0,9.783979911E0
8.041327792E0,-1.690734100E0,1.164578247E-1,9.630822601E0,9.778797891E0
8.051313792E0,-1.705253906E0,1.502874756E-1,9.572144623E0,9.724013055E0
8.061300792E0,-1.730102234E0,1.013392639E-1,9.491911469E0,9.648829292E0
8.071286917E0,-1.745220795E0,1.050814819E-1,9.453591156E0,9.613907816E0
8.081272917E0,-1.782642975E0,1.462458801E-1,9.471703491E0,9.639106331E0
8.091259917E0,-1.780697021E0,6.915618896E-2,9.523495789E0,9.688789217E0
8.101245917E0,-1.696721649E0,7.619155884E-2,9.594148865E0,9.743323968E0
8.111232917E0,-1.575922852E0,1.181044006E-1,9.537865906E0,9.667903988E0
8.121218917E0,-1.505269775E0,7.214996338E-2,9.512568512E0,9.631199427E0
8.131205917E0,-1.464853821E0,7.559280396E-2,9.512568512E0,9.624991984E0
8.141191917E0,-1.367256775E0,7.110214233E-2,9.521998901E0,9.619922540E0
8.151177917E0,-1.320254517E0,6.107299805E-2,9.539811859E0,9.630929976E0
8.161164917E0,-1.306183777E0,8.232879639E-2,9.625733185E0,9.714300460E0
8.171150917E0,-1.278191986E0,6.601272583E-2,9.689949646E0,9.774111549E0
8.181137917E0,-1.233884125E0,9.131011963E-2,9.801018677E0,9.878804314E0
8.191123917E0,-2.073937225E0,-2.125579834E-2,1.007180557E1,1.028313838E1
8.201110917E0,-2.654130707E0,3.276686096E-1,9.482780457E0,9.852659626E0
8.211096917E0,-1.945204926E0,4.611909485E-1,9.868977356E0,1.006942071E1
8.221083917E0,-1.828896790E0,9.355545044E-2,9.557325439E0,9.731191378E0
8.231069917E0,-1.829645233E0,-4.730163574E-2,9.500294037E0,9.674989711E0
8.241055917E0,-1.813329163E0,-8.083190918E-3,9.880653076E0,1.004567236E1
8.251042917E0,-1.847009125E0,-4.490661621E-4,9.693392487E0,9.867791080E0
8.261028917E0,-1.812431030E0,-2.080673218E-2,9.478289795E0,9.650042311E0
8.271015917E0,-1.820514221E0,-7.664062500E-2,9.714348907E0,9.883760444E0
8.281001917E0,-1.778751068E0,-5.568420410E-2,9.611063690E0,9.774436114E0
8.290988917E0,-1.756447449E0,2.395019531E-2,9.578281860E0,9.738026733E0
8.300974917E0,-1.777104492E0,9.580078125E-3,9.688452759E0,9.850091828E0
8.310960917E0,-1.730700989E0,-4.370910645E-2,9.692194977E0,9.845602057E0
8.320947917E0,-1.673519897E0,-6.676116943E-2,9.642947388E0,9.787316293E0
8.330933917E0,-1.656156006E0,-5.029541016E-2,9.663903809E0,9.804918111E0
8.340920917E0,-1.661095734E0,-2.574645996E-2,9.641151123E0,9.783235502E0
8.350906917E0,-1.637295227E0,-1.481918335E-2,9.604627075E0,9.743193343E0
8.360893917E0,-1.596579895E0,1.616638184E-2,9.595645752E0,9.727576580E0
8.370879917E0,-1.565444641E0,5.658233643E-2,9.589957581E0,9.717052273E0
8.380865917E0,-1.558259583E0,6.182144165E-2,9.629924469E0,9.755380059E0
8.390852917E0,-1.530567169E0,4.266128540E-2,9.746382294E0,9.865922342E0
8.400838917E0,-1.521136780E0,5.194198608E-2,9.813293152E0,9.930623221E0
8.410825917E0,-1.521286469E0,1.001417542E-1,9.861792297E0,9.978942239E0
8.420811917E0,-1.529968414E0,6.721023560E-2,9.878108368E0,9.996116521E0
8.430798917E0,-1.511706390E0,1.377136230E-2,9.857750702E0,9.972998283E0
8.440784917E0,-1.512005768E0,2.529739380E-2,9.834249573E0,9.949837489E0
8.450770917E0,-1.510209503E0,4.939727783E-3,9.793384552E0,9.909144167E0
8.460757917E0,-1.465302887E0,-1.661544800E-2,9.780211945E0,9.889384931E0
8.470743917E0,-1.440753937E0,-3.817062378E-2,9.770332489E0,9.876063277E0
8.480730917E0,-1.411564636E0,-8.681945801E-3,9.736053772E0,9.837852060E0
8.490716917E0,-1.365011444E0,1.796264648E-3,9.734257507E0,9.829497886E0
8.500703917E0,-1.347647552E0,2.005828857E-2,9.748927002E0,9.841653009E0
8.510689917E0,-1.362317047E0,-3.263214111E-2,9.675280151E0,9.770773695E0
8.520675917E0,-1.394350433E0,-1.017883301E-1,9.568851471E0,9.670444275E0
8.530662917E0,-1.347048798E0,-1.317260742E-1,9.524842987E0,9.620526293E0
8.540648917E0,-1.263672180E0,-8.472381592E-2,9.549092560E0,9.632715828E0
8.550635917E0,-1.187779999E0,-5.284011841E-2,9.560618591E0,9.634263919E0
8.560621917E0,-1.154100037E0,-7.140151978E-2,9.573491821E0,9.643069570E0
8.570608917E0,-1.147962799E0,-9.071136475E-2,9.594148865E0,9.663008826E0
8.580594917E0,-1.140478363E0,-1.082249451E-1,9.652377777E0,9.720123471E0
8.590580917E0,-1.111289062E0,-1.041833496E-1,9.732760620E0,9.796552804E0
8.600567917E0,-1.091081085E0,-1.160087585E-1,9.647288361E0,9.709484470E0
8.610553917E0,-1.080303497E0,-1.233435059E-1,9.602381744E0,9.663746915E0
8.620540917E0,-1.041085052E0,-1.453477478E-1,9.590706024E0,9.648141069E0
8.630526917E0,-1.050964508E0,-1.282832336E-1,9.509275360E0,9.568035371E0
8.640513917E0,-1.047371979E0,-6.885681152E-2,9.510622559E0,9.568368240E0
8.650499917E0,-1.043629761E0,-7.065307617E-2,9.589358826E0,9.646240595E0
8.660485917E0,-1.003064117E0,-8.487350464E-2,9.652976532E0,9.705323130E0
8.670472917E0,-9.819580078E-1,-1.227447510E-1,9.752070465E0,9.802152119E0
8.680458917E0,-9.367520142E-1,-1.011895752E-1,9.855655060E0,9.900589898E0
8.690445917E0,-9.192384338E-1,-6.466552734E-2,9.830956421E0,9.874051098E0
8.700431917E0,-9.451345825E-1,-3.353027344E-2,9.827064514E0,9.872466795E0
8.710417917E0,-9.571096802E-1,-4.071533203E-2,9.787247314E0,9.834018846E0
8.720404917E0,-9.475296021E-1,-7.753875732E-2,9.710606689E0,9.757033713E0
8.730390917E0,-9.174421692E-1,-7.514373779E-2,9.743089142E0,9.786477034E0
8.740377917E0,-8.652008057E-1,-1.046324158E-1,9.797725525E0,9.836409194E0
8.750363917E0,-8.214916992E-1,-1.678010559E-1,9.773026886E0,9.808927583E0
8.760350917E0,-8.122109985E-1,-2.068698120E-1,9.762548676E0,9.798461025E0
8.770336917E0,-7.628137207E-1,-2.408491516E-1,9.703271942E0,9.736189166E0
8.780322917E0,-7.432044983E-1,-2.086660767E-1,9.698631592E0,9.729303634E0
8.790309917E0,-7.312294006E-1,-1.655557251E-1,9.778265991E0,9.806966449E0
8.800295917E0,-7.229965210E-1,-2.165995789E-1,9.743238831E0,9.772427654E0
8.810282917E0,-6.701564026E-1,-2.673440552E-1,9.663454742E0,9.690352935E0
8.820268917E0,-6.403683472E-1,-2.710862732E-1,9.590556335E0,9.615733472E0
8.830255917E0,-6.174659729E-1,-2.700384521E-1,9.590406647E0,9.614056617E0
8.840241917E0,-5.587879944E-1,-3.026705933E-1,9.579928436E0,9.600983406E0
8.850227917E0,-4.746629333E-1,-3.144960022E-1,9.583670654E0,9.600570600E0
8.860214917E0,-4.534071350E-1,-2.424957275E-1,9.559421082E0,9.573239453E0
8.870200917E0,-4.526586914E-1,-1.902543640E-1,9.607321472E0,9.619860835E0
8.880187917E0,-4.222718811E-1,-1.769320679E-1,9.594148865E0,9.605066941E0
8.890173917E0,-3.989204407E-1,-2.001338196E-1,9.509874115E0,9.520341210E0
8.900159917E0,-4.065545654E-1,-1.923500061E-1,9.469458160E0,9.480133068E0
8.910146917E0,-3.749702454E-1,-2.564167786E-1,9.444759521E0,9.455677378E0
8.920132917E0,-3.516188049E-1,-3.047662354E-1,9.476044464E0,9.487462091E0
8.930119917E0,-3.043171692E-1,-3.282673645E-1,9.492809601E0,9.503357434E0
8.940105917E0,-2.505789185E-1,-3.290158081E-1,9.507179718E0,9.516170836E0
8.950092917E0,-1.657054138E-1,-3.022215271E-1,9.557774506E0,9.563987120E0
8.960078917E0,-1.199006653E-1,-2.538720703E-1,9.639504547E0,9.643592438E0
8.970064917E0,-1.695973206E-1,-2.160008240E-1,9.747430115E0,9.751298039E0
8.980051917E0,-2.838098145E-1,-1.767823792E-1,9.810598755E0,9.816295022E0
8.990037917E0,-3.300636292E-1,-1.975891113E-1,9.859247589E0,9.866749540E0
9.000024917E0,-3.475772095E-1,-2.173480225E-1,9.902208252E0,9.910690104E0
9.010010917E0,-3.420387268E-1,-2.380050659E-1,9.930050354E0,9.938789511E0
9.019996917E0,-2.739303589E-1,-2.579136658E-1,9.927954712E0,9.935081382E0
9.029983917E0,-1.995350647E-1,-2.594105530E-1,9.961784363E0,9.967158861E0
9.039969917E0,-1.460961914E-1,-3.077600098E-1,9.921069031E0,9.926916492E0
9.049956917E0,-1.417552185E-1,-3.308120728E-1,9.851314087E0,9.857886204E0
9.059942917E0,-1.478924561E-1,-3.534150696E-1,9.831854553E0,9.839315949E0
9.069930292E0,-1.315763855E-1,-4.281097412E-1,9.804012451E0,9.814237130E0
9.079916292E0,-1.052311707E-1,-4.537065125E-1,9.728569336E0,9.739711727E0
9.089902292E0,-8.562194824E-2,-4.076023865E-1,9.746232605E0,9.755127924E0
9.099889292E0,-4.326004028E-2,-4.085005188E-1,9.797725525E0,9.806333136E0
9.109875292E0,-1.676513672E-2,-4.340972900E-1,9.862241364E0,9.871804609E0
9.119862292E0,-1.496887207E-2,-4.340972900E-1,9.877060547E0,9.886606575E0
9.129848292E0,-3.906875610E-2,-4.162843323E-1,9.882748718E0,9.891589419E0
9.139834292E0,-5.673202515E-2,-3.827540588E-1,9.878407745E0,9.885982944E0
9.149821292E0,-1.255888367E-1,-3.784130859E-1,9.857601013E0,9.865660989E0
9.159807292E0,-1.540296936E-1,-4.159849548E-1,9.842332764E0,9.852323729E0
9.169794292E0,-1.348695374E-1,-4.537065125E-1,9.834399261E0,9.845783271E0
9.179780292E0,-1.151106262E-1,-4.571493530E-1,9.806407471E0,9.817732094E0
9.189767292E0,-1.013392639E-1,-4.507127380E-1,9.730215912E0,9.741176177E0
9.199753292E0,-7.694000244E-2,-4.327500916E-1,9.763895874E0,9.773784070E0
9.209739292E0,-8.217910767E-2,-4.209246826E-1,9.805359650E0,9.814734273E0
9.219726292E0,-6.077362061E-2,-4.565505981E-1,9.751771088E0,9.762641611E0
9.229712292E0,-6.436614990E-2,-4.941224670E-1,9.624535675E0,9.637426367E0
9.239699292E0,-2.709365845E-2,-4.561015320E-1,9.671388245E0,9.682175027E0
9.249685292E0,4.445755005E-2,-4.085005188E-1,9.746232605E0,9.754891037E0
9.259671292E0,6.870712280E-2,-3.966751099E-1,9.735305328E0,9.743625693E0
9.269658292E0,8.786727905E-2,-3.990701294E-1,9.643546143E0,9.652199741E0
9.279644292E0,9.490264893E-2,-3.999682617E-1,9.586664429E0,9.595473724E0
9.289631292E0,1.014889526E-1,-3.845503235E-1,9.662406921E0,9.670588735E0
9.299617292E0,6.721023560E-2,-3.537144470E-1,9.834399261E0,9.840987753E0
9.309604292E0,4.176315308E-2,-3.661386108E-1,9.904303894E0,9.911157211E0
9.319590292E0,7.619155884E-2,-3.632945251E-1,9.867330780E0,9.874310345E0
9.329576292E0,7.963439941E-2,-3.385958862E-1,9.854607239E0,9.860744021E0
9.339563292E0,9.116043091E-2,-3.070115662E-1,9.861043854E0,9.866243065E0
9.349549292E0,1.095721436E-1,-3.323089600E-1,9.899064789E0,9.905247043E0
9.359536292E0,1.390608215E-1,-3.941304016E-1,9.912387085E0,9.921194203E0
9.369522292E0,1.703457642E-1,-4.092489624E-1,9.825567627E0,9.835562088E0
9.379508292E0,1.516346741E-1,-4.064048767E-1,9.739047546E0,9.748702740E0
9.389495292E0,1.014889526E-1,-3.900888062E-1,9.702673187E0,9.711041976E0
9.399481292E0,6.436614990E-2,-3.835025024E-1,9.772577820E0,9.780311570E0
9.409468292E0,5.448669434E-2,-3.743714905E-1,9.858199768E0,9.865456172E0
9.419454292E0,1.242416382E-2,-3.532653809E-1,9.839937744E0,9.846284863E0
9.429440292E0,2.230361938E-2,-3.456312561E-1,9.838291168E0,9.844385787E0
9.439427292E0,6.900650024E-2,-3.261717224E-1,9.826316071E0,9.831970169E0
9.449413292E0,7.469467163E-2,-2.823129272E-1,9.800719299E0,9.805069029E0
9.459400292E0,6.900650024E-2,-3.086581421E-1,9.743987274E0,9.749118921E0
9.469386292E0,6.406677246E-2,-3.628454590E-1,9.685159607E0,9.692165805E0
9.479372292E0,3.772155762E-2,-3.668870544E-1,9.651329956E0,9.658374550E0
9.489359292E0,-7.185058594E-2,-3.520678711E-1,9.677076416E0,9.683745260E0
9.499345292E0,-9.744735718E-2,-3.622467041E-1,9.715696106E0,9.722935230E0
9.509332292E0,-5.882766724E-2,-3.544628906E-1,9.790690155E0,9.797281171E0
9.519318292E0,-4.610412598E-2,-2.812651062E-1,9.895771637E0,9.899875350E0
9.529304292E0,-6.361770630E-2,-2.707868958E-1,9.894873505E0,9.898782472E0
9.539291292E0,-3.891906738E-2,-2.871029663E-1,9.877659302E0,9.881907513E0
9.549277292E0,-2.814147949E-2,-2.737806702E-1,9.883646851E0,9.887478084E0
9.559264292E0,-2.320175171E-2,-2.658471680E-1,9.885443115E0,9.889044374E0
9.569250292E0,-5.688171387E-2,-2.652484131E-1,9.822424164E0,9.826169585E0
9.579237292E0,-1.267863464E-1,-3.028202820E-1,9.766141205E0,9.771657430E0
9.589223292E0,-1.694476318E-1,-3.147953796E-1,9.815987549E0,9.822495619E0
9.599209292E0,-1.435514832E-1,-3.041674805E-1,9.898915100E0,9.904627456E0
9.609196292E0,-9.759704590E-2,-2.965333557E-1,1.000205063E1,1.000692130E1
9.619182292E0,-7.708969116E-2,-2.817141724E-1,1.003677841E1,1.004102717E1
9.629169292E0,-5.852828979E-2,-2.703378296E-1,1.000833755E1,1.001215904E1
9.639155292E0,-3.832031250E-2,-2.824626160E-1,9.976603546E0,9.980674922E0
9.649141292E0,-6.975494385E-2,-3.113525391E-1,9.901310120E0,9.906449830E0
9.659128292E0,-9.385482788E-2,-3.709286499E-1,9.835297394E0,9.842736998E0
9.669114292E0,-5.104385376E-2,-3.511697388E-1,9.897118835E0,9.903478525E0
9.679101292E0,-8.098159790E-2,-2.981799316E-1,9.964927826E0,9.969716940E0
9.689087292E0,-1.143621826E-1,-2.848576355E-1,9.930499420E0,9.935242388E0
9.699073292E0,-1.496887207E-1,-3.156935120E-1,9.896220703E0,9.902386243E0
9.709060292E0,-1.193019104E-1,-3.709286499E-1,9.890682220E0,9.898354196E0
9.719046292E0,-5.224136353E-2,-3.724255371E-1,9.838590546E0,9.845775432E0
9.729033292E0,-3.802093506E-2,-3.538641357E-1,9.759554901E0,9.766042048E0
9.739019292E0,-9.415420532E-2,-3.378474426E-1,9.701625366E0,9.707962745E0
9.749005292E0,-1.151106262E-1,-3.520678711E-1,9.708361359E0,9.715424978E0
9.758992292E0,-9.280700684E-2,-3.513194275E-1,9.795929260E0,9.802666400E0
9.768978292E0,-7.349716187E-2,-3.207829285E-1,9.822274475E0,9.827786088E0
9.778965292E0,6.137237549E-3,-3.375480652E-1,9.860594788E0,9.866372481E0
9.788951292E0,2.170486450E-2,-3.445834351E-1,9.877659302E0,9.883691726E0
9.798937292E0,2.784210205E-2,-3.779640198E-1,9.856403503E0,9.863687039E0
9.808924292E0,1.841171265E-2,-3.421884155E-1,9.849218445E0,9.855178125E0
9.818910292E0,6.286926270E-3,-3.254232788E-1,9.873617706E0,9.878981043E0
9.828897292E0,1.481918335E-2,-3.462300110E-1,9.844727783E0,9.850825344E0
9.838883292E0,2.888992310E-2,-3.309617615E-1,9.798024902E0,9.803655558E0
9.848869292E0,2.814147949E-2,-3.213816833E-1,9.783654785E0,9.788972320E0
9.858856292E0,7.155120850E-2,-3.279679871E-1,9.842781830E0,9.848504289E0
9.868842292E0,1.088237000E-1,-3.525169373E-1,9.884544983E0,9.891427617E0
9.878829292E0,1.311273193E-1,-3.489244080E-1,9.871522064E0,9.878557105E0
9.888815292E0,1.498384094E-1,-3.074606323E-1,9.826615448E0,9.832566031E0
9.898801292E0,1.445993042E-1,-3.379971313E-1,9.772278442E0,9.779191018E0
9.908788292E0,1.338217163E-1,-3.766168213E-1,9.780511322E0,9.788674589E0
9.918774292E0,1.219963074E-1,-3.719764709E-1,9.803413696E0,9.811226717E0
9.928761292E0,9.086105347E-2,-3.230282593E-1,9.806557159E0,9.812296689E0
9.938747292E0,5.777984619E-2,-2.754272461E-1,9.799372101E0,9.803412276E0
9.948733292E0,9.340576172E-2,-3.132984924E-1,9.816586304E0,9.822028672E0
9.958720292E0,1.184037781E-1,-3.251239014E-1,9.830657043E0,9.836744528E0
9.968706292E0,1.243913269E-1,-3.424877930E-1,9.813442841E0,9.820205266E0
9.978693292E0,1.655557251E-1,-3.270698547E-1,9.848020935E0,9.854841436E0
9.988679292E0,1.865121460E-1,-3.623963928E-1,9.882000275E0,9.890401779E0
9.998665292E0,1.525328064E-1,-4.285588074E-1,9.864037628E0,9.874521114E0
1.000865229E1,1.287322998E-1,-4.305047607E-1,9.833650818E0,9.843911558E0
1.001863829E1,1.270857239E-1,-4.331991577E-1,9.791588287E0,9.801990282E0
1.002862529E1,1.218466187E-1,-3.589535522E-1,9.791139221E0,9.798474448E0
1.003861129E1,8.696914673E-2,-3.507206726E-1,9.773026886E0,9.779704655E0
1.004859729E1,4.550537109E-2,-3.763174438E-1,9.739346924E0,9.746720682E0
1.005858429E1,2.200424194E-2,-3.990701294E-1,9.770033112E0,9.778204751E0
1.006857004E1,3.802093506E-2,-4.215234375E-1,9.799521790E0,9.808657141E0
1.007855704E1,7.813751221E-2,-4.061054993E-1,9.819430389E0,9.828135139E0
1.008854304E1,7.738906860E-2,-3.743714905E-1,9.885892181E0,9.893280917E0
1.009852904E1,7.723937988E-2,-3.031196594E-1,9.924062805E0,9.928991389E0
1.010851604E1,4.939727783E-2,-2.980302429E-1,9.984836426E0,9.989405416E0
1.011850204E1,2.604583740E-2,-3.281176758E-1,1.008737320E1,1.009274183E1
1.012848904E1,-1.332229614E-2,-3.347039795E-1,1.006761429E1,1.007318528E1
1.013847504E1,-1.128652954E-1,-3.706292725E-1,9.949958954E0,9.957499074E0
1.014846104E1,-2.068698120E-1,-3.926335144E-1,9.923913116E0,9.933831473E0
1.015844804E1,-1.865121460E-1,-3.760180664E-1,9.898166656E0,9.907062104E0
1.016843404E1,-1.468446350E-1,-3.272195435E-1,9.918374634E0,9.924857246E0
1.017842104E1,-1.140628052E-1,-2.839595032E-1,9.942923584E0,9.947631513E0
1.018840704E1,-1.016386414E-1,-2.737806702E-1,9.876761169E0,9.881077748E0
1.019839304E1,-1.907034302E-1,-2.499801636E-1,9.847571869E0,9.852589994E0
1.020838004E1,-2.131567383E-1,-2.291734314E-1,9.919272766E0,9.924209211E0
1.021836604E1,-2.363584900E-1,-2.103126526E-1,9.879156189E0,9.884220948E0
1.022835304E1,-2.478845215E-1,-2.944377136E-1,9.731114044E0,9.738722752E0
1.023833904E1,-2.517764282E-1,-3.677851868E-1,9.648336182E0,9.658625595E0
1.024832504E1,-2.773731995E-1,-3.893403625E-1,9.582922211E0,9.594838191E0
1.025831204E1,-2.839595032E-1,-4.897814941E-1,9.645192719E0,9.661793906E0
1.026829804E1,-3.236270142E-1,-5.291496277E-1,9.678722992E0,9.698577861E0
1.027828504E1,-3.677851868E-1,-4.385879517E-1,9.466165009E0,9.483454292E0
1.028827104E1,-3.827540588E-1,-4.026626587E-1,9.340576172E0,9.357082938E0
1.029825704E1,-3.414399719E-1,-4.803511047E-1,9.267977142E0,9.286695793E0
1.030824404E1,-2.853067017E-1,-6.021977234E-1,9.300160217E0,9.324002471E0
1.031823004E1,-2.899470520E-1,-6.412664795E-1,9.339079285E0,9.365558920E0
1.032821704E1,-3.457809448E-1,-6.812333679E-1,9.238638153E0,9.270171427E0
1.033820304E1,-3.944297791E-1,-7.044351196E-1,9.153315582E0,9.188851388E0
1.034818904E1,-4.875361633E-1,-6.245013428E-1,9.195827179E0,9.229893333E0
1.035817604E1,-4.478686523E-1,-5.746549988E-1,9.259893951E0,9.288511759E0
1.036816204E1,-3.749702454E-1,-5.182223511E-1,9.243727570E0,9.265832746E0
1.037814904E1,-2.745291138E-1,-5.481600952E-1,9.244476013E0,9.264781837E0
1.038813504E1,-1.908531189E-1,-6.310876465E-1,9.326355743E0,9.349631436E0
1.039812104E1,-1.393601990E-1,-6.749464417E-1,9.424850922E0,9.450015284E0
1.040810804E1,-1.029858398E-1,-7.264393616E-1,9.503587189E0,9.531867062E0
1.041809404E1,-1.457968140E-1,-7.339237976E-1,9.548793182E0,9.578066198E0
1.042808004E1,-1.815724182E-1,-7.457492065E-1,9.763446808E0,9.793569523E0
1.043806704E1,-1.508862305E-1,-7.414082336E-1,9.878557434E0,9.907489581E0
1.044805304E1,-1.595681763E-1,-6.777905273E-1,9.918374634E0,9.942787204E0
1.045804004E1,-1.568737793E-1,-6.352789307E-1,1.002989273E1,1.005121569E1
1.046802604E1,-1.170565796E-1,-7.008425903E-1,1.001896545E1,1.004413019E1
1.047801204E1,-1.263372803E-1,-7.435038757E-1,1.003917343E1,1.006746057E1
1.048799904E1,-1.534309387E-1,-7.090754700E-1,1.014365616E1,1.016956682E1
1.049798504E1,-1.929487610E-1,-6.683601379E-1,1.031954041E1,1.034296131E1
1.050797204E1,-1.773811340E-1,-7.378157043E-1,1.064526306E1,1.067227538E1
1.051795804E1,-2.276765442E-1,-7.598199463E-1,1.077145065E1,1.080061628E1
1.052794404E1,-3.459306335E-1,-8.089178467E-1,1.076636124E1,1.080224747E1
1.053793104E1,-3.570075989E-1,-8.416996765E-1,1.084375031E1,1.088222557E1
1.054791704E1,-3.580554199E-1,-8.173004150E-1,1.047970734E1,1.051762566E1
1.055790404E1,-3.932322693E-1,-8.045768738E-1,1.004411316E1,1.008395680E1
1.056789004E1,-4.186793518E-1,-8.719367981E-1,9.696535950E0,9.744658824E0
1.057787604E1,-3.676354980E-1,-9.472302246E-1,9.362580414E0,9.417553449E0
1.058786304E1,-2.872526550E-1,-1.018931122E0,9.445807343E0,9.504946663E0
1.059784904E1,-2.806663513E-1,-1.125509491E0,9.488318939E0,9.558961319E0
1.060783504E1,-3.438349915E-1,-1.247954865E0,9.335037689E0,9.424358997E0
1.061782204E1,-3.550616455E-1,-1.337768097E0,9.472601624E0,9.573185142E0
1.062780804E1,-4.058061218E-1,-1.375789032E0,9.473050690E0,9.581031439E0
1.063779504E1,-4.156855774E-1,-1.369651794E0,9.258696442E0,9.368681889E0
1.064778104E1,-4.008663940E-1,-1.303639069E0,9.204658813E0,9.305155160E0
1.065776704E1,-3.460803223E-1,-1.232237549E0,8.987610168E0,9.078288248E0
1.066775404E1,-3.336561584E-1,-1.209634552E0,8.941805420E0,9.029420045E0
1.067774004E1,-3.501219177E-1,-1.249302063E0,9.139095154E0,9.230731349E0
1.068772704E1,-3.752696228E-1,-1.275347900E0,9.254654846E0,9.349651110E0
1.069771304E1,-3.817062378E-1,-1.285077667E0,9.473649445E0,9.568027909E0
1.070769904E1,-4.212240601E-1,-1.319506073E0,9.761351166E0,9.859132952E0
1.071768604E1,-4.640350342E-1,-1.242566071E0,9.611213379E0,9.702304962E0
1.072767204E1,-5.201683044E-1,-1.048868866E0,9.749675446E0,9.819718543E0
1.073765804E1,-5.309458923E-1,-8.637039185E-1,9.930948486E0,9.982566095E0
1.074764504E1,-4.766088867E-1,-8.138575745E-1,9.953102417E0,9.997688128E0
1.075763104E1,-4.351451111E-1,-8.134085083E-1,9.919123077E0,9.961926887E0
1.076761804E1,-4.751119995E-1,-8.068222046E-1,9.829459534E0,9.873954031E0
1.077760404E1,-4.186793518E-1,-8.897497559E-1,9.827513580E0,9.876586971E0
1.078759004E1,-3.608995056E-1,-8.972341919E-1,1.010503647E1,1.015120878E1
1.079757704E1,-3.734733582E-1,-8.032296753E-1,1.015952316E1,1.019806703E1
1.080756304E1,-3.844006348E-1,-8.060737610E-1,9.990823975E0,1.003065713E1
1.081755004E1,-3.493734741E-1,-8.798703003E-1,9.963730316E0,1.000860407E1
1.082753604E1,-3.144960022E-1,-9.440867615E-1,1.015398468E1,1.020262772E1
1.083752204E1,-3.373983765E-1,-9.798623657E-1,9.989476776E0,1.004308788E1
1.084750904E1,-3.996688843E-1,-9.475296021E-1,9.727222137E0,9.781431290E0
1.085749504E1,-4.276606750E-1,-9.072633362E-1,9.572444000E0,9.624848287E0
1.086748204E1,-4.017645264E-1,-8.813671875E-1,9.470356293E0,9.519762138E0
1.087746804E1,-3.730242920E-1,-8.936416626E-1,9.310488739E0,9.360712745E0
1.088745404E1,-3.812571716E-1,-9.738748169E-1,9.184450836E0,9.243804755E0
1.089744104E1,-3.754193115E-1,-1.022823029E0,9.151519318E0,9.216149545E0
1.090742704E1,-3.454815674E-1,-1.004411316E0,9.279353485E0,9.339946504E0
1.091741304E1,-3.980223083E-1,-9.318122864E-1,9.471853180E0,9.525896208E0
1.092740004E1,-4.104464722E-1,-8.695417786E-1,9.672585754E0,9.720261539E0
1.093738604E1,-4.219725037E-1,-9.075627136E-1,9.643396454E0,9.695196029E0
1.094737304E1,-4.887336731E-1,-9.430389404E-1,9.536369019E0,9.595338301E0
1.095735904E1,-5.399272156E-1,-9.677375793E-1,9.616003418E0,9.679646644E0
1.096734504E1,-6.030958557E-1,-9.650431824E-1,9.595196686E0,9.662444432E0
1.097733204E1,-6.869215393E-1,-9.039701843E-1,9.502988434E0,9.570570122E0
1.098731804E1,-7.132667542E-1,-9.006770325E-1,9.595795441E0,9.664329191E0
1.099730404E1,-6.897656250E-1,-8.575666809E-1,9.618548126E0,9.681304937E0
1.100729104E1,-7.197033691E-1,-8.361611938E-1,9.661957855E0,9.724740001E0
1.101727704E1,-7.608677673E-1,-9.122030640E-1,9.977801056E0,1.004826095E1
1.102726404E1,-6.920109558E-1,-1.051263885E0,1.024529480E1,1.032231081E1
1.103725004E1,-7.183561707E-1,-1.116528168E0,1.024484573E1,1.033051474E1
1.104723604E1,-7.731422424E-1,-1.124012604E0,1.025038422E1,1.034077027E1
1.105722304E1,-7.135661316E-1,-1.031954041E0,1.024813889E1,1.032465285E1
1.106720871E1,-6.063890076E-1,-1.041534119E0,1.019589752E1,1.026688011E1
1.107719571E1,-5.261558533E-1,-9.991722107E-1,1.014859589E1,1.021122831E1
1.108718171E1,-4.995112610E-1,-9.246272278E-1,9.787546692E0,9.843806035E0
1.109716771E1,-4.370910645E-1,-1.016985168E0,9.403445435E0,9.468373328E0
1.110715471E1,-4.336482239E-1,-1.172212372E0,9.417067108E0,9.499646601E0
1.111714071E1,-4.182302856E-1,-1.257684631E0,9.617500305E0,9.708398391E0
1.112712671E1,-3.549119568E-1,-1.143172760E0,9.643097076E0,9.717104902E0
1.113711371E1,-2.857557678E-1,-1.058598633E0,9.549841003E0,9.612582931E0
1.114709971E1,-2.372566223E-1,-1.110690308E0,9.426946564E0,9.495116912E0
1.115708671E1,-2.312690735E-1,-1.216220856E0,9.129964142E0,9.213518535E0
1.116707271E1,-3.228785706E-1,-1.263372803E0,8.919651489E0,9.014463051E0
1.117705871E1,-4.098477173E-1,-1.287023621E0,8.814570007E0,8.917457562E0
1.118704571E1,-5.125341797E-1,-1.370100861E0,8.794062653E0,8.914897957E0
1.119703171E1,-6.270460510E-1,-1.379381561E0,8.916358337E0,9.044187429E0
1.120701771E1,-7.970924377E-1,-1.258732452E0,9.109456787E0,9.230491141E0
1.121700471E1,-7.926017761E-1,-1.257834320E0,9.567803650E0,9.682625235E0
1.122699071E1,-6.484515381E-1,-1.121767273E0,9.828561401E0,9.913600276E0
1.123697771E1,-5.363346863E-1,-9.755213928E-1,1.000549347E1,1.006723380E1
1.124696371E1,-3.126997375E-1,-1.041683807E0,9.768685913E0,9.829044244E0
1.125694971E1,-3.677851868E-1,-9.773176575E-1,1.024095383E1,1.029405416E1
1.126693671E1,-3.484753418E-1,-9.023236084E-1,1.057341248E1,1.061756443E1
1.127692271E1,-4.468208313E-1,-7.694000244E-1,1.075184143E1,1.078859210E1
1.128690871E1,-3.960763550E-1,-6.878196716E-1,1.042611877E1,1.045628639E1
1.129689571E1,-4.285588074E-1,-6.228547668E-1,1.065963318E1,1.068641148E1
1.130688171E1,-3.520678711E-1,-6.291416931E-1,1.032433044E1,1.034947198E1
1.131686871E1,-3.338058472E-1,-6.526428223E-1,1.027942383E1,1.030552877E1
1.132685471E1,-3.306623840E-1,-7.252418518E-1,1.007973907E1,1.011120434E1
1.133684071E1,-3.559597778E-1,-8.358618164E-1,9.957293701E0,9.998653419E0
1.134682771E1,-3.722758484E-1,-1.053359528E0,9.940827942E0,1.000341021E1
1.135681371E1,-4.751119995E-1,-1.182989960E0,9.783056030E0,9.865768188E0
1.136680071E1,-6.414161682E-1,-1.174457703E0,9.551487579E0,9.644774781E0
1.137678671E1,-7.679031372E-1,-1.090182953E0,9.519005127E0,9.611952596E0
1.138677271E1,-6.373745728E-1,-9.586065674E-1,9.521400146E0,9.590736867E0
1.139675971E1,-4.830455017E-1,-8.556207275E-1,9.374555511E0,9.425906366E0
1.140674571E1,-4.102967834E-1,-8.580157471E-1,9.224717102E0,9.273615265E0
1.141673171E1,-3.444337463E-1,-8.898994446E-1,9.084309082E0,9.134288540E0
1.142671871E1,-3.233276367E-1,-8.949888611E-1,9.128317566E0,9.177784450E0
1.143670471E1,-3.421884155E-1,-8.863069153E-1,9.243428192E0,9.292125570E0
1.144669171E1,-3.719764709E-1,-8.439450073E-1,9.290131073E0,9.335799110E0
1.145667771E1,-3.739224243E-1,-8.132588196E-1,9.319769440E0,9.362655088E0
1.146666371E1,-3.677851868E-1,-7.994874573E-1,9.310488739E0,9.351986243E0
1.147665071E1,-3.508703613E-1,-7.393125916E-1,9.276210022E0,9.312237405E0
1.148663671E1,-3.333567810E-1,-7.138655090E-1,9.282496948E0,9.315872493E0
1.149662271E1,-3.694317627E-1,-6.658154297E-1,9.258097687E0,9.289357502E0
1.150660971E1,-4.137396240E-1,-6.867718506E-1,9.341773682E0,9.376117084E0
1.151659571E1,-3.806584167E-1,-7.997868347E-1,9.680519257E0,9.720957406E0
1.152658271E1,-3.378474426E-1,-8.231382751E-1,9.912686462E0,9.952539898E0
1.153656871E1,-3.092568970E-1,-6.864724731E-1,1.008153534E1,1.010961122E1
1.154655471E1,-3.365002441E-1,-5.764512634E-1,1.027403503E1,1.029569446E1
1.155654171E1,-3.646417236E-1,-5.400769043E-1,1.035606445E1,1.037654652E1
1.156652771E1,-3.694317627E-1,-4.954696655E-1,1.026026367E1,1.027886086E1
1.157651371E1,-3.616479492E-1,-5.525010681E-1,1.005593857E1,1.007759630E1
1.158650071E1,-3.394940186E-1,-6.010002136E-1,9.897717590E0,9.921757452E0
1.159648671E1,-3.016227722E-1,-6.599775696E-1,9.952803040E0,9.979220162E0
1.160647271E1,-2.513273621E-1,-7.580236816E-1,1.006985962E1,1.010147703E1
1.161645971E1,-2.974314880E-1,-7.911048889E-1,1.003947281E1,1.007498520E1
1.162644571E1,-3.677851868E-1,-7.664062500E-1,9.835147705E0,9.871817202E0
1.163643271E1,-4.266128540E-1,-7.286846924E-1,9.730066223E0,9.766635481E0
1.164641871E1,-4.578977966E-1,-7.698490906E-1,9.763297119E0,9.804300518E0
1.165640471E1,-3.897894287E-1,-8.183482361E-1,1.000938538E1,1.005034453E1
1.166639171E1,-3.460803223E-1,-8.322692871E-1,1.003378464E1,1.007418870E1
1.167637771E1,-3.504212952E-1,-7.967930603E-1,9.847721558E0,9.886116231E0
1.168636371E1,-3.562591553E-1,-7.084767151E-1,9.926457825E0,9.958083389E0
1.169635071E1,-4.260140991E-1,-6.520440674E-1,1.014410522E1,1.017396286E1
1.170633671E1,-5.324427795E-1,-5.921685791E-1,1.036624329E1,1.039678598E1
1.171632371E1,-5.792953491E-1,-4.680766296E-1,1.036594391E1,1.039266433E1
1.172630971E1,-5.480104065E-1,-3.784130859E-1,1.019260437E1,1.021433775E1
1.173629571E1,-4.932243347E-1,-3.737727356E-1,1.001716919E1,1.003626698E1
1.174628271E1,-4.228706360E-1,-4.408332825E-1,9.865833893E0,9.884727207E0
1.175626871E1,-3.119512939E-1,-5.227130127E-1,9.973460083E0,9.992019242E0
1.176625471E1,-2.621049500E-1,-4.995112610E-1,1.000459534E1,1.002048593E1
1.177624171E1,-3.315605164E-1,-4.323010254E-1,9.937983856E0,9.952906092E0
1.178622771E1,-4.450245667E-1,-4.149371338E-1,9.912087708E0,9.930745310E0
1.179621471E1,-5.028044128E-1,-3.815565491E-1,9.806856537E0,9.827147746E0
1.180620071E1,-5.313949585E-1,-3.338058472E-1,9.643695831E0,9.664092106E0
1.181618671E1,-5.255570984E-1,-3.668870544E-1,9.353599091E0,9.375533709E0
1.182617371E1,-4.900808716E-1,-4.043092346E-1,9.028475189E0,9.050801592E0
1.183615971E1,-5.625302124E-1,-4.496649170E-1,8.880882111E0,8.910033998E0
1.184614571E1,-6.509962463E-1,-4.945715332E-1,8.931327209E0,8.968667841E0
1.185613271E1,-7.003935242E-1,-5.282514954E-1,8.959768066E0,9.002613206E0
1.186611871E1,-7.144642639E-1,-5.023553467E-1,8.876092072E0,8.918959050E0
1.187610471E1,-7.535330200E-1,-3.065625000E-1,8.875792694E0,8.912995486E0
1.188609171E1,-7.619155884E-1,-2.894979858E-1,8.804241486E0,8.841888519E0
1.189607771E1,-8.315208435E-1,-6.324348450E-1,8.823102264E0,8.884736030E0
1.190606471E1,-9.431886292E-1,-7.271878052E-1,8.833430786E0,8.913355504E0
1.191605071E1,-8.900491333E-1,-6.303392029E-1,8.804091797E0,8.871389256E0
1.192603671E1,-8.065228271E-1,-4.640350342E-1,9.215436401E0,9.262293218E0
1.193602371E1,-5.123844910E-1,-3.456312561E-1,9.864337006E0,9.883680660E0
1.194600971E1,-1.347198486E-1,-2.028282166E-1,1.043225601E1,1.043509723E1
1.195599571E1,6.256988525E-2,3.367996216E-2,1.086156326E1,1.086179570E1
1.196598271E1,2.345622253E-1,3.604504395E-1,1.124207199E1,1.125029451E1
1.197596871E1,3.351530457E-1,4.890330505E-1,1.131197662E1,1.132750176E1
1.198595571E1,3.673361206E-1,4.080514526E-1,1.100257004E1,1.101626022E1
1.199594171E1,3.089575195E-1,3.138972473E-1,1.074869797E1,1.075771789E1
1.200592771E1,2.433938599E-1,2.704875183E-1,1.075124268E1,1.075739853E1
1.201591471E1,2.610571289E-1,1.374142456E-1,1.083596649E1,1.083998170E1
1.202590071E1,1.453477478E-1,-9.116043091E-2,1.070468948E1,1.070606432E1
1.203588671E1,-1.362167358E-2,-1.972897339E-1,1.042447220E1,1.042634785E1
1.204587371E1,-1.428030396E-1,-1.731898499E-1,1.012853760E1,1.013102469E1
1.205585971E1,-1.637594604E-1,-1.160087585E-1,9.972262573E0,9.974281730E0
1.206584758E1,-1.820214844E-1,-2.375559998E-1,9.892029419E0,9.896555497E0
1.207583358E1,-2.070195007E-1,-4.221221924E-1,9.498797150E0,9.510425412E0
1.208581958E1,-2.956352234E-1,-5.592370605E-1,9.109007721E0,9.130945621E0
1.209580658E1,-3.589535522E-1,-6.027964783E-1,8.922345886E0,8.949886444E0
1.210579258E1,-3.356021118E-1,-5.456153870E-1,8.863967285E0,8.887082815E0
1.211577858E1,-2.444416809E-1,-5.686674500E-1,8.971593475E0,8.992920765E0
1.212576558E1,-2.094145203E-1,-5.605842590E-1,8.995543671E0,9.015426506E0
1.213575158E1,-3.182382202E-1,-3.894900513E-1,9.077273712E0,9.091197727E0
1.214573758E1,-3.706292725E-1,-1.853146362E-1,9.302405548E0,9.311630177E0
1.215572458E1,-3.547622681E-1,-1.017883301E-1,9.477840729E0,9.485024091E0
1.216571058E1,-3.049159241E-1,-1.100212097E-1,9.606423340E0,9.611890957E0
1.217569658E1,-2.125579834E-1,-1.079255676E-1,9.661508789E0,9.664449333E0
1.218568358E1,-1.618135071E-1,-1.008901978E-1,9.623188477E0,9.625077605E0
1.219566958E1,-1.856140137E-1,-1.172062683E-1,9.679621124E0,9.682110048E0
1.220565658E1,-2.562670898E-1,-1.722917175E-1,9.710007935E0,9.714916950E0
1.221564258E1,-2.793191528E-1,-2.471360779E-1,9.654024353E0,9.661225680E0
1.222562858E1,-2.065704346E-1,-2.176473999E-1,9.530231781E0,9.534954616E0
1.223561558E1,-1.779798889E-1,-2.915936279E-1,9.506580963E0,9.512717030E0
1.224560158E1,-2.083666992E-1,-2.866539001E-1,9.610315247E0,9.616847003E0
1.225558758E1,-2.356100464E-1,-2.885998535E-1,9.678124237E0,9.685292495E0
1.226557458E1,-2.585124207E-1,-3.511697388E-1,9.672436066E0,9.682260495E0
1.227556058E1,-2.743794250E-1,-4.011657715E-1,9.635762329E0,9.648011904E0
1.228554758E1,-2.920426941E-1,-4.423301697E-1,9.674681396E0,9.689190113E0
1.229553358E1,-2.704875183E-1,-4.676275635E-1,9.770781555E0,9.785704432E0
1.230551958E1,-2.107617188E-1,-4.459226990E-1,9.846224670E0,9.858570272E0
1.231550658E1,-1.330732727E-1,-4.299060059E-1,9.867630157E0,9.877887051E0
1.232549258E1,-5.807922363E-2,-4.493655396E-1,9.956096191E0,9.966401254E0
1.233547858E1,-2.275268555E-2,-5.110372925E-1,1.013841705E1,1.015131406E1
1.234546558E1,-5.837860107E-3,-5.339396667E-1,1.022673340E1,1.024066412E1
1.235545158E1,-4.191284180E-2,-5.707630920E-1,1.020951920E1,1.022554690E1
1.236543758E1,-1.056802368E-1,-6.165678406E-1,1.010982651E1,1.012916167E1
1.237542458E1,-1.704954529E-1,-7.006929016E-1,1.002076172E1,1.004667630E1
1.238541058E1,-1.927990723E-1,-7.026388550E-1,1.005848328E1,1.008483806E1
1.239539658E1,-1.866618347E-1,-6.909631348E-1,1.001088226E1,1.003643544E1
1.240538358E1,-2.540217590E-1,-7.002438354E-1,9.949360199E0,9.977205864E0
1.241536958E1,-3.279679871E-1,-7.725434875E-1,9.942324829E0,9.977685576E0
1.242535658E1,-3.734733582E-1,-8.226892090E-1,1.005189697E1,1.009241956E1
1.243534258E1,-3.149450684E-1,-8.298742676E-1,1.009006760E1,1.012903479E1
1.244532858E1,-3.436853027E-1,-7.575746155E-1,9.947114868E0,9.981840165E0
1.245531558E1,-4.748126221E-1,-6.712042236E-1,9.754914551E0,9.789500499E0
1.246530158E1,-5.466632080E-1,-7.197033691E-1,9.608069916E0,9.650482947E0
1.247528758E1,-4.996609497E-1,-7.723937988E-1,9.571246490E0,9.615352964E0
1.248527458E1,-3.905378723E-1,-7.491920471E-1,9.639803925E0,9.676757115E0
1.249526058E1,-2.775228882E-1,-6.939569092E-1,9.782157898E0,9.810668086E0
1.250524658E1,-1.969903564E-1,-6.650669861E-1,9.962383118E0,9.986500722E0
1.251523358E1,-2.793191528E-1,-6.484515381E-1,9.965227203E0,9.990208296E0
1.252521958E1,-3.501219177E-1,-7.423063660E-1,9.954000549E0,9.987779084E0
1.253520658E1,-4.863386536E-1,-6.971003723E-1,9.902657318E0,9.939069181E0
1.254519258E1,-6.578819275E-1,-6.655160522E-1,9.610614624E0,9.656067196E0
1.255517858E1,-8.499325562E-1,-7.143145752E-1,9.336384888E0,9.402165359E0
1.256516558E1,-1.040785675E0,-8.918453979E-1,9.345216522E0,9.445194274E0
1.257515158E1,-1.137035522E0,-1.039737854E0,9.739197235E0,9.860317813E0
1.258513758E1,-1.186582489E0,-8.925938416E-1,9.961934052E0,1.007198252E1
1.259512458E1,-1.001118164E0,-5.724096680E-1,9.976902924E0,1.004333024E1
1.260511058E1,-9.333091736E-1,-3.064128113E-1,1.000773880E1,1.005583367E1
1.261509658E1,-9.279203796E-1,-2.627037048E-1,9.864786072E0,9.911813846E0
1.262508358E1,-8.967851257E-1,-3.149450684E-1,9.858798523E0,9.904510199E0
1.263506958E1,-8.397537231E-1,-4.170327759E-1,9.898915100E0,9.943219942E0
1.264505558E1,-7.367678833E-1,-4.575984192E-1,1.003019211E1,1.006762022E1
1.265504258E1,-7.023394775E-1,-3.712280273E-1,1.016356476E1,1.019456422E1
1.266502858E1,-7.810757446E-1,-4.101470947E-1,1.002330643E1,1.006205604E1
1.267501558E1,-8.852590942E-1,-4.315525818E-1,9.899064789E0,9.947934710E0
1.268500158E1,-9.514215088E-1,-3.595523071E-1,9.945318604E0,9.997191749E0
1.269498758E1,-9.970765686E-1,-3.484753418E-1,9.828262024E0,9.884853624E0
1.270497458E1,-1.089584198E0,-3.396437073E-1,9.701924744E0,9.768822616E0
1.271496058E1,-1.236728210E0,-3.204835510E-1,9.525591431E0,9.610884375E0
1.272494658E1,-1.342408447E0,-3.546125793E-1,9.487869873E0,9.588925135E0
1.273493358E1,-1.329834595E0,-3.603007507E-1,9.561666412E0,9.660421381E0
1.274491958E1,-1.236129456E0,-4.107458496E-1,9.643845520E0,9.731417399E0
1.275490558E1,-1.092577972E0,-4.484674072E-1,9.693093109E0,9.764778731E0
1.276489258E1,-8.625064087E-1,-5.222639465E-1,9.639205170E0,9.691798246E0
1.277487858E1,-7.289840698E-1,-5.490582275E-1,9.587113495E0,9.630453150E0
1.278486458E1,-6.746470642E-1,-5.990542603E-1,9.441915436E0,9.484923920E0
1.279485158E1,-7.282356262E-1,-5.942642212E-1,9.365873566E0,9.412920096E0
1.280483758E1,-7.198530579E-1,-6.068380737E-1,9.393565979E0,9.440631476E0
1.281482458E1,-7.424560547E-1,-6.316864014E-1,9.402846680E0,9.453242533E0
1.282481058E1,-7.270381165E-1,-6.342311096E-1,9.483977966E0,9.532925657E0
1.283479658E1,-7.747888184E-1,-5.760021973E-1,9.663305054E0,9.711412915E0
1.284478358E1,-7.728428650E-1,-5.568420410E-1,9.832004242E0,9.878039611E0
1.285476958E1,-7.849676514E-1,-5.209167480E-1,9.707762604E0,9.753367790E0
1.286475558E1,-7.527845764E-1,-5.099894714E-1,9.520202637E0,9.563526134E0
1.287474258E1,-7.078779602E-1,-4.435276794E-1,9.635462952E0,9.671605570E0
1.288472858E1,-6.334826660E-1,-3.932322693E-1,9.619446259E0,9.648299240E0
1.289471458E1,-6.099815369E-1,-5.010081482E-1,9.486822052E0,9.519604996E0
1.290470158E1,-6.179150391E-1,-5.798941040E-1,9.707463226E0,9.744379840E0
1.291468758E1,-6.563850403E-1,-5.060975647E-1,9.884544983E0,9.919234123E0
1.292467358E1,-6.041436768E-1,-3.803590393E-1,9.697583771E0,9.723826077E0
1.293466058E1,-6.185137939E-1,-4.082011414E-1,9.538913727E0,9.567657110E0
1.294464658E1,-7.291337585E-1,-5.295986938E-1,9.532028046E0,9.574532337E0
1.295463258E1,-7.120692444E-1,-6.566844177E-1,9.589658203E0,9.638455348E0
1.296461958E1,-7.363188171E-1,-7.658074951E-1,9.621841278E0,9.680312810E0
1.297460558E1,-8.479866028E-1,-7.896080017E-1,9.666448517E0,9.735645279E0
1.298459258E1,-8.523275757E-1,-7.300318909E-1,9.821675720E0,9.885581562E0
1.299457858E1,-8.548722839E-1,-6.502478027E-1,9.961335297E0,1.001907330E1
1.300456458E1,-7.801776123E-1,-6.643185425E-1,9.939331055E0,9.992011712E0
1.301455158E1,-7.060816956E-1,-6.688092041E-1,9.790091400E0,9.838279663E0
1.302453758E1,-5.885760498E-1,-6.149212646E-1,9.613608398E0,9.651218388E0
1.303452358E1,-5.195695496E-1,-4.822970581E-1,9.721833344E0,9.747646204E0
1.304451058E1,-6.255491638E-1,-4.987628174E-1,9.770332489E0,9.803033870E0
1.305449658E1,-6.394702148E-1,-7.396119690E-1,9.725725250E0,9.774747038E0
1.306448258E1,-6.078858948E-1,-8.243357849E-1,9.764344940E0,9.817916625E0
1.307446896E1,-6.405180359E-1,-6.613247681E-1,9.803563385E0,9.846698373E0
1.308445496E1,-6.697073364E-1,-5.444178772E-1,9.812095642E0,9.849980692E0
1.309444096E1,-6.565347290E-1,-6.152206421E-1,9.708361359E0,9.749964849E0
1.310442796E1,-6.450086975E-1,-6.445596313E-1,9.575138397E0,9.618459786E0
1.311441396E1,-6.515950012E-1,-6.074368286E-1,9.577383728E0,9.618723128E0
1.312439996E1,-6.656657410E-1,-5.812413025E-1,9.732610931E0,9.772648969E0
1.313438696E1,-6.394702148E-1,-5.619314575E-1,9.903854828E0,9.940373714E0
1.314437296E1,-6.685098267E-1,-4.902305603E-1,1.001103195E1,1.004529702E1
1.315435996E1,-6.589297485E-1,-4.224215698E-1,9.892777863E0,9.923692974E0
1.316434596E1,-6.192622375E-1,-4.028123474E-1,9.832602997E0,9.860315674E0
1.317433196E1,-6.936575317E-1,-4.810995483E-1,1.000220032E1,1.003776015E1
1.318431896E1,-7.643106079E-1,-5.548960876E-1,9.748627625E0,9.794274906E0
1.319430496E1,-7.342231750E-1,-4.543052673E-1,9.440568237E0,9.479968649E0
1.320429096E1,-6.315367126E-1,-2.685415649E-1,9.526639252E0,9.551324967E0
1.321427796E1,-5.563929749E-1,-1.975891113E-1,9.695787506E0,9.713748502E0
1.322426396E1,-5.945635986E-1,-1.968406677E-1,9.728569336E0,9.748708296E0
1.323424996E1,-7.393125916E-1,-2.294728088E-1,9.882449341E0,9.912721415E0
1.324423696E1,-8.752299500E-1,-2.784210205E-1,9.892328796E0,9.934873665E0
1.325422296E1,-9.410929871E-1,-3.023712158E-1,9.671088867E0,9.721473357E0
1.326420896E1,-9.192384338E-1,-2.493814087E-1,9.603579254E0,9.650695564E0
1.327419596E1,-8.957373047E-1,-2.119592285E-1,9.758956146E0,9.802269997E0
1.328418196E1,-8.692424011E-1,-1.992356873E-1,9.955796814E0,9.995657428E0
1.329416796E1,-9.039701843E-1,-1.676513672E-1,9.976902924E0,1.001917467E1
1.330415496E1,-9.023236084E-1,-1.466949463E-1,9.822424164E0,9.864873226E0
1.331414096E1,-8.746311951E-1,-1.231938171E-1,9.668095093E0,9.708358212E0
1.332412696E1,-8.168513489E-1,-6.122268677E-2,9.367969208E0,9.403714235E0
1.333411396E1,-8.259823608E-1,-3.667373657E-2,9.253307648E0,9.290171917E0
1.334409996E1,-8.887019348E-1,-7.454498291E-2,9.532776489E0,9.574402105E0
1.335408696E1,-9.367520142E-1,-1.410067749E-1,9.497150574E0,9.544278719E0
1.336407296E1,-1.018631744E0,-1.664538574E-1,9.415719910E0,9.472122198E0
1.337405896E1,-1.140328674E0,-2.188449097E-1,9.561367035E0,9.631613684E0
1.338404596E1,-1.233135681E0,-2.927911377E-1,9.686357117E0,9.768923403E0
1.339403196E1,-1.279688873E0,-3.125500488E-1,9.637408905E0,9.727021206E0
1.340401796E1,-1.278341675E0,-2.636018372E-1,9.477840729E0,9.567293674E0
1.341400496E1,-1.257684631E0,-1.923500061E-1,9.897567902E0,9.979008945E0
1.342399096E1,-1.177301788E0,-1.505868530E-1,1.011296997E1,1.018238074E1
1.343397696E1,-1.050665131E0,-1.772314453E-1,1.048434769E1,1.053835161E1
1.344396396E1,-1.017733612E0,-1.398092651E-1,1.039633072E1,1.044696227E1
1.345394996E1,-1.129102020E0,-5.957611084E-2,1.011611343E1,1.017910466E1
1.346393596E1,-1.106199646E0,-1.646575928E-2,9.715396729E0,9.778184002E0
1.347392296E1,-1.024918671E0,-5.882766724E-2,9.480984192E0,9.536402897E0
1.348390896E1,-9.398954773E-1,-9.325607300E-2,9.309889984E0,9.357678757E0
1.349389496E1,-8.644523621E-1,-8.906478882E-2,9.307944031E0,9.348424065E0
1.350388196E1,-8.698411560E-1,-1.404080200E-1,9.471404114E0,9.512299088E0
1.351386796E1,-8.875044250E-1,-1.740879822E-1,9.577832794E0,9.620439271E0
1.352385396E1,-9.433383179E-1,-9.939331055E-2,9.772577820E0,9.818505154E0
1.353384096E1,-9.764195251E-1,-1.826202393E-2,9.988878021E0,1.003650401E1
1.354382696E1,-1.008452911E0,-3.757186890E-2,1.003303619E1,1.008366026E1
1.355381296E1,-1.066083069E0,-9.445358276E-2,9.952653351E0,1.001003313E1
1.356379996E1,-1.104403381E0,-1.454974365E-1,9.932445374E0,9.994715976E0
1.357378596E1,-1.113684082E0,-1.535806274E-1,9.858349457E0,9.922244366E0
1.358377196E1,-1.077758789E0,-1.404080200E-1,9.847422180E0,9.907219691E0
1.359375896E1,-1.081800385E0,-1.451980591E-1,9.799671478E0,9.860270566E0
1.360374496E1,-1.097817078E0,-1.356179810E-1,9.761500854E0,9.823975443E0
1.361373196E1,-1.125210114E0,-1.124162292E-1,9.699978790E0,9.765670675E0
1.362371796E1,-1.106199646E0,-1.324745178E-1,9.653275909E0,9.717353700E0
1.363370396E1,-1.016386414E0,-1.950444031E-1,9.695338440E0,9.750419023E0
1.364369096E1,-9.678872681E-1,-2.357597351E-1,9.588011627E0,9.639624234E0
1.365367696E1,-9.584568787E-1,-1.823208618E-1,9.519005127E0,9.568873449E0
1.366366296E1,-9.743238831E-1,-1.567240906E-1,9.604028320E0,9.654596286E0
1.367364996E1,-9.490264893E-1,-2.326162720E-1,9.742041321E0,9.790920830E0
1.368363596E1,-9.484277344E-1,-2.414479065E-1,9.788594513E0,9.837397766E0
1.369362196E1,-9.601034546E-1,-3.008743286E-1,9.793534241E0,9.845081865E0
1.370360896E1,-9.636959839E-1,-3.439846802E-1,9.753866730E0,9.807392701E0
1.371359496E1,-9.711804199E-1,-3.480262756E-1,9.693242798E0,9.747987979E0
1.372358096E1,-9.542655945E-1,-3.053649902E-1,9.764195251E0,9.815466342E0
1.373356796E1,-9.336085510E-1,-2.863545227E-1,9.829010468E0,9.877402017E0
1.374355396E1,-9.708810425E-1,-2.948867798E-1,9.751920776E0,9.804566642E0
1.375353996E1,-1.049467621E0,-2.950364685E-1,9.704319763E0,9.765359741E0
1.376352696E1,-1.106648712E0,-3.423381042E-1,9.690548401E0,9.759538670E0
1.377351296E1,-1.009201355E0,-3.300636292E-1,9.780062256E0,9.837532572E0
1.378349896E1,-8.822653198E-1,-2.613565063E-1,9.919721832E0,9.962307993E0
1.379348596E1,-8.081694031E-1,-2.097138977E-1,9.888436890E0,9.923623422E0
1.380347196E1,-7.584727478E-1,-2.079176331E-1,9.893675995E0,9.924884651E0
1.381345796E1,-7.809260559E-1,-2.227368164E-1,9.881850586E0,9.915161532E0
1.382344496E1,-8.678952026E-1,-2.688409424E-1,9.858199768E0,9.899980818E0
1.383343096E1,-9.003776550E-1,-3.896397400E-1,9.855655060E0,9.904364478E0
1.384341696E1,-1.050665131E0,-4.249662781E-1,9.858199768E0,9.923134395E0
1.385340396E1,-1.188827820E0,-5.453160095E-1,9.795330505E0,9.882265977E0
1.386338996E1,-1.072070618E0,-6.096821594E-1,9.719737701E0,9.797670577E0
1.387337696E1,-9.752220154E-1,-4.927752686E-1,9.651779022E0,9.713430071E0
1.388336296E1,-9.216334534E-1,-3.460803223E-1,9.583520966E0,9.633953182E0
1.389334896E1,-8.149053955E-1,-2.163002014E-1,9.604776764E0,9.641711117E0
1.390333596E1,-7.491920471E-1,-1.763333130E-1,9.640402679E0,9.671077809E0
1.391332196E1,-7.957452393E-1,-2.540217590E-1,9.603130188E0,9.639390383E0
1.392330796E1,-9.056167603E-1,-3.897894287E-1,9.528435516E0,9.579308999E0
1.393329496E1,-9.503736877E-1,-3.597019958E-1,9.577533417E0,9.631289738E0
1.394328096E1,-9.240284729E-1,-2.180964661E-1,9.793085175E0,9.838999539E0
1.395326696E1,-7.876620483E-1,-1.239422607E-1,9.894424438E0,9.926500297E0
1.396325396E1,-6.500981140E-1,-1.805245972E-1,9.846524048E0,9.869612582E0
1.397323996E1,-6.388714600E-1,-3.504212952E-1,9.931247864E0,9.957943360E0
1.398322596E1,-6.310876465E-1,-4.710704041E-1,9.986183624E0,1.001718735E1
1.399321296E1,-7.143145752E-1,-4.540058899E-1,9.960586853E0,9.996482237E0
1.400319896E1,-8.105644226E-1,-2.918930054E-1,9.871971130E0,9.909491925E0
1.401318496E1,-8.485853577E-1,-1.296304321E-1,9.763596497E0,9.801261026E0
1.402317196E1,-7.818241882E-1,-5.388793945E-3,9.653126221E0,9.684736648E0
1.403315796E1,-7.842192078E-1,-5.822891235E-2,9.708361359E0,9.740157629E0
1.404314396E1,-7.875123596E-1,-1.987866211E-1,9.747879181E0,9.781658365E0
1.405313096E1,-6.915618896E-1,-2.026785278E-1,9.710307312E0,9.737012094E0
1.406311696E1,-6.337820435E-1,-1.758842468E-1,9.656718750E0,9.679092518E0
1.407310379E1,-5.251080322E-1,-1.037342834E-1,9.604926453E0,9.619829074E0
1.408309079E1,-4.541555786E-1,-8.756790161E-2,9.464817810E0,9.476112157E0
1.409307679E1,-5.691165161E-1,-2.317181396E-1,9.503587189E0,9.523431963E0
1.410306279E1,-7.315287781E-1,-3.067121887E-1,9.594448242E0,9.627182547E0
1.411304979E1,-7.960446167E-1,-3.046165466E-1,9.831405487E0,9.868283140E0
1.412303579E1,-7.749385071E-1,-3.421884155E-1,1.019350250E1,1.022864194E1
1.413302179E1,-6.755451965E-1,-2.531236267E-1,1.028915359E1,1.031441295E1
1.414300879E1,-5.893244934E-1,-1.618135071E-1,1.018092865E1,1.019925464E1
1.415299479E1,-6.078858948E-1,-2.014810181E-1,1.006207581E1,1.008243470E1
1.416298079E1,-6.373745728E-1,-2.055226135E-1,9.755812683E0,9.778771242E0
1.417296779E1,-6.316864014E-1,6.406677246E-2,9.586814117E0,9.607816463E0
1.418295379E1,-6.921606445E-1,5.538482666E-2,9.471853180E0,9.497271003E0
1.419293979E1,-7.361691284E-1,-3.879931641E-1,9.724827118E0,9.760366087E0
1.420292679E1,-5.315446472E-1,-2.920426941E-1,9.736203461E0,9.755074909E0
1.421291279E1,-3.900888062E-1,-1.444496155E-1,9.584269409E0,9.593292192E0
1.422289879E1,-4.487667847E-1,-9.595046997E-2,9.750573578E0,9.761366872E0
1.423288579E1,-4.014651489E-1,-2.134561157E-1,9.984537048E0,9.994884584E0
1.424287179E1,-3.540138245E-1,-1.457968140E-1,1.001522324E1,1.002253855E1
1.425285779E1,-4.114942932E-1,-1.453477478E-1,1.002330643E1,1.003280246E1
1.426284479E1,-3.583547974E-1,-9.160949707E-2,9.698182526E0,9.705233370E0
1.427283079E1,-2.197430420E-1,1.975891113E-2,9.669891357E0,9.672407988E0
1.428281779E1,-1.471440125E-1,1.966909790E-1,9.430090027E0,9.433288749E0
1.429280379E1,-1.532812500E-1,2.637515259E-1,9.390272827E0,9.395226649E0
1.430278979E1,-1.511856079E-1,2.993774414E-1,9.267977142E0,9.274043576E0
1.431277679E1,-2.095642090E-1,1.966909790E-1,9.089099121E0,9.093642138E0
1.432276279E1,-3.932322693E-1,6.915618896E-2,9.408385162E0,9.416853273E0
1.433274879E1,-4.788542175E-1,4.490661621E-3,9.522298279E0,9.534331966E0
1.434273579E1,-4.818479919E-1,-1.227447510E-2,9.713450775E0,9.725402517E0
1.435272179E1,-3.601510620E-1,3.607498169E-2,9.948462067E0,9.955044334E0
1.436270779E1,-7.888595581E-2,7.170089722E-2,1.001432510E1,1.001489248E1
1.437269479E1,3.083587646E-2,8.412506104E-2,1.003543121E1,1.003583118E1
1.438268079E1,3.697311401E-2,2.469863892E-2,1.000654129E1,1.000664008E1
1.439266679E1,-2.583627319E-1,-1.429527283E-1,9.880952454E0,9.885363330E0
1.440265379E1,-4.348457336E-1,-2.935395813E-1,9.793534241E0,9.807577133E0
1.441263979E1,-5.227130127E-1,-7.843688965E-2,9.458231506E0,9.472989204E0
1.442262579E1,-5.601351929E-1,9.295669556E-2,9.673334198E0,9.689983844E0
1.443261279E1,-4.099974060E-1,1.401086426E-1,1.006207581E1,1.007139999E1
1.444259879E1,-3.255729675E-1,-8.981323242E-4,1.017913239E1,1.018433771E1
1.445258479E1,-3.100053406E-1,-2.371069336E-1,1.000309845E1,1.001070935E1
1.446257179E1,-3.240760803E-1,-2.258802795E-1,9.723779297E0,9.731799989E0
1.447255779E1,-6.703060913E-1,-2.365081787E-2,1.003692810E1,1.005931386E1
1.448254379E1,-8.572673035E-1,-2.260299683E-1,8.884474640E0,8.928599353E0
1.449253079E1,-6.855743408E-1,-1.814227295E-1,9.897567902E0,9.922941940E0
1.450251679E1,-7.027885437E-1,8.681945801E-2,1.029094986E1,1.031528470E1
1.451250279E1,-7.466473389E-1,-2.157014465E-1,1.024469604E1,1.027413288E1
1.452248979E1,-6.514453125E-1,-3.306623840E-1,1.044527893E1,1.047079608E1
1.453247579E1,-3.586541748E-1,-2.157014465E-1,1.010204269E1,1.011070851E1
1.454246179E1,-2.058219910E-1,-2.680924988E-1,9.892777863E0,9.898549900E0
1.455244879E1,-2.496807861E-1,-3.007246399E-1,1.004665787E1,1.005425831E1
1.456243479E1,-3.382965088E-1,-3.189866638E-1,1.002225861E1,1.003303865E1
1.457242079E1,-4.737648010E-1,-3.480262756E-1,1.012988480E1,1.014692768E1
1.458240779E1,-4.947212219E-1,-2.453398132E-1,1.030472122E1,1.031950678E1
1.459239379E1,-3.760180664E-1,-1.429527283E-1,1.035157379E1,1.035938729E1
1.460237979E1,-3.665876770E-1,-1.444496155E-1,1.033391052E1,1.034141958E1
1.461236679E1,-3.185375977E-1,-2.074685669E-1,1.018242554E1,1.018951909E1
1.462235279E1,-3.168910217E-1,-2.769241333E-1,9.907447357E0,9.916381398E0
1.463233879E1,-3.065625000E-1,-2.073188782E-1,9.760752411E0,9.767765830E0
1.464232579E1,-3.153941345E-1,-1.335223389E-1,9.817933502E0,9.823905533E0
1.465231179E1,-2.782713318E-1,-2.360591125E-1,9.878557434E0,9.885294928E0
1.466229779E1,-1.595681763E-1,-3.785627747E-1,9.919871521E0,9.928374629E0
1.467228479E1,-1.975891113E-2,-4.522096252E-1,9.930499420E0,9.940809962E0
1.468227079E1,2.948867798E-2,-4.323010254E-1,9.996063080E0,1.000545006E1
1.469225679E1,3.457809448E-2,-4.730163574E-1,1.004770569E1,1.005889307E1
1.470224379E1,-1.092727661E-2,-4.965174866E-1,1.011042526E1,1.012261567E1
1.471222979E1,-5.703140259E-2,-4.617897034E-1,1.002240829E1,1.003320339E1
1.472221579E1,7.783813477E-3,-4.703219604E-1,9.923464050E0,9.934606288E0
1.473220279E1,4.834945679E-2,-3.978726196E-1,9.728719025E0,9.736971508E0
1.474218879E1,5.014572144E-2,-3.640429688E-1,9.741592255E0,9.748520992E0
1.475217479E1,-9.325607300E-2,-4.340972900E-1,9.860295410E0,9.870286861E0
1.476216179E1,-1.327738953E-1,-4.373904419E-1,9.944869537E0,9.955368874E0
1.477214779E1,4.490661621E-3,-4.561015320E-1,9.922565918E0,9.933044003E0
1.478213379E1,1.172062683E-1,-5.391787720E-1,9.774673462E0,9.790234540E0
1.479212079E1,2.802172852E-1,-6.173162842E-1,9.656269684E0,9.680038498E0
1.480210679E1,3.641926575E-1,-7.168592834E-1,9.528136139E0,9.562003023E0
1.481209279E1,3.191363525E-1,-7.159611511E-1,9.572144623E0,9.604186642E0
1.482207979E1,2.818638611E-1,-6.246510315E-1,9.703870697E0,9.728038993E0
1.483206579E1,2.573149109E-1,-5.492079163E-1,9.764794006E0,9.783610902E0
1.484205179E1,2.751278687E-1,-5.665718079E-1,9.754315796E0,9.774629180E0
1.485203879E1,3.583547974E-1,-6.176156616E-1,9.717492371E0,9.743691561E0
1.486202479E1,4.544549561E-1,-7.782316589E-1,9.671837311E0,9.713733103E0
1.487201079E1,5.288502502E-1,-8.665480042E-1,9.569300537E0,9.622998535E0
1.488199779E1,5.399272156E-1,-8.334667969E-1,9.517508240E0,9.569177153E0
1.489198379E1,4.870870972E-1,-7.490423584E-1,9.514963531E0,9.556822134E0
1.490196979E1,4.858895874E-1,-7.249424744E-1,9.497000885E0,9.537015051E0
1.491195679E1,4.941224670E-1,-7.533833313E-1,9.437724152E0,9.480631868E0
1.492194279E1,5.149291992E-1,-7.695497131E-1,9.416168976E0,9.461585333E0
1.493192879E1,5.267546082E-1,-7.705975342E-1,9.348060608E0,9.394547786E0
1.494191579E1,5.348377991E-1,-7.818241882E-1,9.372609558E0,9.420356175E0
1.495190179E1,5.215155029E-1,-6.963519287E-1,9.511221313E0,9.550927458E0
1.496188779E1,4.177812195E-1,-5.372328186E-1,9.630223846E0,9.654241119E0
1.497187479E1,3.603007507E-1,-5.710624695E-1,9.673783264E0,9.697319816E0
1.498186079E1,4.423301697E-1,-5.526507568E-1,9.796528015E0,9.822069028E0
1.499184779E1,5.649252319E-1,-5.519023132E-1,9.830507355E0,9.862180871E0
1.500183379E1,6.183641052E-1,-7.632627869E-1,9.607471161E0,9.657559027E0
1.501181979E1,5.698649597E-1,-8.783734131E-1,9.478289795E0,9.535945856E0
1.502180679E1,5.661227417E-1,-9.488768005E-1,9.534423065E0,9.598233448E0
1.503179279E1,5.767506409E-1,-9.581575012E-1,9.538614349E0,9.603950791E0
1.504177879E1,5.605842590E-1,-8.891510010E-1,9.584119720E0,9.641586749E0
1.505176579E1,5.331912231E-1,-8.053253174E-1,9.749376068E0,9.797100360E0
1.506175179E1,4.646337891E-1,-7.216493225E-1,9.814640350E0,9.852097620E0
1.507173754E1,3.894900513E-1,-5.243595886E-1,9.793384552E0,9.815143222E0
1.508172454E1,3.412902832E-1,-5.351371765E-1,9.776469727E0,9.797051147E0
1.509171054E1,4.019142151E-1,-7.110214233E-1,9.835297394E0,9.869152006E0
1.510169654E1,5.034031677E-1,-9.184899902E-1,9.824968872E0,9.880640260E0
1.511168354E1,6.010002136E-1,-1.068029022E0,9.748328247E0,9.825059331E0
1.512166954E1,5.929170227E-1,-1.104553070E0,9.610315247E0,9.691736027E0
1.513165554E1,5.581892395E-1,-1.015488281E0,9.532028046E0,9.602205494E0
1.514164254E1,5.822891235E-1,-9.463320923E-1,9.383985901E0,9.449539483E0
1.515162854E1,6.571334839E-1,-9.283694458E-1,9.289682007E0,9.359053693E0
1.516161454E1,7.761360168E-1,-1.090332642E0,9.418264618E0,9.512881835E0
1.517160154E1,8.268804932E-1,-1.084794159E0,9.583371277E0,9.679954274E0
1.518158754E1,8.454418945E-1,-8.933422852E-1,9.726324005E0,9.803785549E0
1.519157354E1,8.201445007E-1,-8.170010376E-1,9.750423889E0,9.818904914E0
1.520156054E1,7.164102173E-1,-7.921527100E-1,9.547146606E0,9.606703797E0
1.521154654E1,7.457492065E-1,-8.117619324E-1,9.473948822E0,9.537861689E0
1.522153254E1,6.905140686E-1,-9.262738037E-1,9.613907776E0,9.683078827E0
1.523151954E1,6.093827820E-1,-9.145980835E-1,9.692194977E0,9.754305741E0
1.524150554E1,5.755531311E-1,-9.262738037E-1,9.743538208E0,9.804375624E0
1.525149154E1,5.640270996E-1,-9.520202637E-1,9.771679688E0,9.834134078E0
1.526147854E1,5.029541016E-1,-8.961863708E-1,9.771979065E0,9.825868292E0
1.527146454E1,4.986131287E-1,-9.394464111E-1,9.789941711E0,9.847544533E0
1.528145054E1,4.905299377E-1,-1.010398865E0,9.864786072E0,9.928521024E0
1.529143754E1,3.827540588E-1,-1.099613342E0,9.979747009E0,1.004743751E1
1.530142354E1,4.323010254E-1,-1.157842255E0,1.014664993E1,1.022164310E1
1.531140954E1,4.340972900E-1,-1.138981476E0,1.015428406E1,1.022717967E1
1.532139654E1,3.797602844E-1,-1.023272095E0,1.016655853E1,1.022498000E1
1.533138254E1,3.629951477E-1,-9.743238831E-1,1.016446289E1,1.021750353E1
1.534136854E1,4.099974060E-1,-1.026565247E0,1.003917343E1,1.009984838E1
1.535135554E1,4.522096252E-1,-1.038989410E0,9.965825958E0,1.003003886E1
1.536134154E1,4.559518433E-1,-1.025068359E0,1.000025436E1,1.006298885E1
1.537132754E1,4.275109863E-1,-9.569599915E-1,1.001986359E1,1.007453246E1
1.538131454E1,4.493655396E-1,-9.098080444E-1,9.997559967E0,1.004892459E1
1.539130054E1,5.402265930E-1,-9.217831421E-1,9.938732300E0,9.995995631E0
1.540128654E1,6.544390869E-1,-1.020877075E0,9.791288910E0,9.866094417E0
1.541127354E1,7.101232910E-1,-1.064586182E0,9.754166107E0,9.837752552E0
1.542125954E1,6.523434448E-1,-1.041983185E0,9.864337006E0,9.940645124E0
1.543124554E1,6.334826660E-1,-9.729766846E-1,1.000848724E1,1.007560424E1
1.544123254E1,5.763015747E-1,-9.577084351E-1,1.012524445E1,1.018675140E1
1.545121854E1,5.569917297E-1,-9.407936096E-1,1.014350647E1,1.020225739E1
1.546120454E1,7.229965210E-1,-9.810598755E-1,9.987830200E0,1.006190611E1
1.547119154E1,8.553213501E-1,-1.111588440E0,9.718689880E0,9.819375564E0
1.548117754E1,9.099577332E-1,-1.189875641E0,9.577683105E0,9.694113718E0
1.549116354E1,9.407936096E-1,-1.099463654E0,9.553583221E0,9.662549628E0
1.550115054E1,8.219407654E-1,-1.087937622E0,9.653575287E0,9.749395402E0
1.551113654E1,7.285350037E-1,-1.049467621E0,9.632169800E0,9.716524100E0
1.552112254E1,7.315287781E-1,-9.493258667E-1,9.582024078E0,9.656683664E0
1.553110954E1,8.036787415E-1,-1.100511475E0,9.424551544E0,9.522562514E0
1.554109554E1,8.382568359E-1,-1.272653503E0,9.220376129E0,9.345461863E0
1.555108154E1,8.756790161E-1,-1.187031555E0,9.208850098E0,9.326241353E0
1.556106854E1,8.515791321E-1,-1.235381012E0,9.329499207E0,9.449386684E0
1.557105454E1,7.414082336E-1,-1.251697083E0,9.414073334E0,9.525817996E0
1.558104054E1,6.035449219E-1,-1.149459686E0,9.333241425E0,9.423105620E0
1.559102754E1,5.996530151E-1,-1.146016846E0,9.413923645E0,9.502362693E0
1.560101354E1,6.328839111E-1,-1.265917511E0,9.429940338E0,9.535557874E0
1.561099954E1,7.490423584E-1,-1.349892883E0,9.431287537E0,9.556801758E0
1.562098654E1,9.163943481E-1,-1.544787598E0,9.460626526E0,9.629621051E0
1.563097254E1,1.019080811E0,-1.600771179E0,9.432485046E0,9.621474327E0
1.564095854E1,1.046174469E0,-1.482367401E0,9.491761780E0,9.663614014E0
1.565094554E1,1.004710693E0,-1.434616699E0,9.415270844E0,9.576789321E0
1.566093154E1,1.032552795E0,-1.300345917E0,9.288334808E0,9.435583092E0
1.567091754E1,9.803114319E-1,-1.218017120E0,9.156159668E0,9.288693992E0
1.568090454E1,8.816665649E-1,-1.196911011E0,9.075477448E0,9.196424457E0
1.569089054E1,9.268725586E-1,-1.266815643E0,9.085506592E0,9.220105457E0
1.570087654E1,1.033301239E0,-1.427880707E0,9.164841614E0,9.332785038E0
1.571086354E1,1.004111938E0,-1.508562927E0,9.429940338E0,9.602488098E0
1.572084954E1,9.620494080E-1,-1.512754211E0,9.609566803E0,9.775363856E0
1.573083554E1,9.836045837E-1,-1.488504639E0,9.602082367E0,9.766427690E0
1.574082254E1,1.002016296E0,-1.433419189E0,9.582622833E0,9.740913078E0
1.575080854E1,9.991722107E-1,-1.414708099E0,9.471254425E0,9.628312651E0
1.576079454E1,1.146465912E0,-1.435215454E0,9.353449402E0,9.532116407E0
1.577078154E1,1.050964508E0,-1.518143005E0,9.469308472E0,9.647646735E0
1.578076754E1,1.382974091E0,-1.684896240E0,9.478289795E0,9.725711805E0
1.579075354E1,1.047222290E0,-1.321452026E0,9.495204620E0,9.643745163E0
1.580074054E1,7.939489746E-1,-1.317260742E0,9.749675446E0,9.870243266E0
1.581072654E1,8.271798706E-1,-1.356479187E0,9.549841003E0,9.681101462E0
1.582071254E1,7.821235657E-1,-1.358574829E0,9.573791199E0,9.701284490E0
1.583069954E1,8.068222046E-1,-1.295256500E0,9.683812408E0,9.803309351E0
1.584068554E1,7.409591675E-1,-1.087189178E0,9.587562561E0,9.677414771E0
1.585067154E1,7.484436035E-1,-1.146615601E0,9.711355133E0,9.807411161E0
1.586065854E1,7.589218140E-1,-1.284628601E0,9.887538757E0,9.999482769E0
1.587064454E1,8.005352783E-1,-1.332828369E0,9.895172882E0,1.001657299E1
1.588063054E1,8.322692871E-1,-1.373543701E0,9.865983582E0,9.995845462E0
1.589061754E1,8.057743835E-1,-1.395248566E0,9.840386810E0,9.971419332E0
1.590060354E1,8.381071472E-1,-1.474882965E0,9.846823425E0,9.991878448E0
1.591058954E1,8.650511169E-1,-1.493294678E0,9.799821167E0,9.950614922E0
1.592057654E1,8.887019348E-1,-1.469494171E0,9.915829926E0,1.006344312E1
1.593056254E1,8.846603394E-1,-1.425635376E0,1.002300705E1,1.016246675E1
1.594054854E1,8.387059021E-1,-1.494492188E0,1.003498215E1,1.018026528E1
1.595053554E1,8.244854736E-1,-1.592538300E0,9.988279266E0,1.014798883E1
1.596052154E1,8.649014282E-1,-1.642085266E0,9.894873505E0,1.006742371E1
1.597050754E1,8.544232178E-1,-1.592238922E0,9.724976807E0,9.891432541E0
1.598049454E1,8.285270691E-1,-1.536854095E0,9.729617157E0,9.885030482E0
1.599048054E1,7.728428650E-1,-1.563049622E0,9.854158173E0,1.000723955E1
1.600046654E1,7.924520874E-1,-1.589843903E0,9.926308136E0,1.008400601E1
1.601045354E1,8.165519714E-1,-1.574575653E0,1.001133133E1,1.016724154E1
1.602043954E1,8.178991699E-1,-1.604962463E0,1.010563522E1,1.026492703E1
1.603042554E1,8.602610779E-1,-1.680405579E0,1.018736526E1,1.036080224E1
1.604041254E1,8.189469910E-1,-1.628762970E0,1.030202682E1,1.046208869E1
1.605039854E1,9.391470337E-1,-1.711241455E0,1.024065445E1,1.042503468E1
1.606038454E1,1.055904236E0,-1.786684570E0,1.009171417E1,1.030290592E1
1.607037171E1,1.033450928E0,-1.759291534E0,1.000953506E1,1.021537663E1
1.608035771E1,9.934840393E-1,-1.693877563E0,9.972861328E0,1.016435905E1
1.609034371E1,9.222322083E-1,-1.702409821E0,9.883048096E0,1.007091610E1
1.610033071E1,9.939331055E-1,-1.748364258E0,9.754764862E0,9.959925608E0
1.611031671E1,1.081501007E0,-1.794618073E0,9.662406921E0,9.886981641E0
1.612030271E1,1.100212097E0,-1.900897064E0,9.605674896E0,9.853571257E0
1.613028971E1,1.192120972E0,-1.967209167E0,9.656569061E0,9.926751249E0
1.614027571E1,1.265468445E0,-1.820663910E0,9.774823151E0,1.002314297E1
1.615026171E1,1.202150116E0,-1.754501495E0,9.917925568E0,1.014340613E1
1.616024871E1,1.080902252E0,-1.879641266E0,9.988878021E0,1.022150112E1
1.617023471E1,1.059646454E0,-1.780247955E0,1.004980133E1,1.026112275E1
1.618022071E1,1.098415833E0,-1.756148071E0,9.953252106E0,1.016650387E1
1.619020771E1,1.166973267E0,-1.820364532E0,9.690398712E0,9.928714964E0
1.620019371E1,1.107247467E0,-1.801653442E0,9.545500031E0,9.776938320E0
1.621017971E1,1.118474121E0,-1.882934418E0,9.548942871E0,9.796873804E0
1.622016671E1,1.130598907E0,-2.037413177E0,9.641749878E0,9.919306783E0
1.623015271E1,1.194066925E0,-1.900298309E0,9.765093384E0,1.001967955E1
1.624013871E1,1.263372803E0,-1.851200409E0,9.764794006E0,1.001869531E1
1.625012571E1,1.210382996E0,-1.893562317E0,9.677375793E0,9.934898464E0
1.626011171E1,1.180744629E0,-1.899400177E0,9.542057190E0,9.800649689E0
1.627009771E1,1.239272919E0,-1.803898773E0,9.442963257E0,9.693265870E0
