"Time (s)","Acceleration x (m/s^2)","Acceleration y (m/s^2)","Acceleration z (m/s^2)","Absolute acceleration (m/s^2)"
5.668791666E-3,-9.333241425E0,-1.633852386E0,1.835632782E0,9.651342747E0
1.565479167E-2,-9.304351501E0,-1.576671295E0,1.831142120E0,9.613008411E0
2.564079166E-2,-9.286837921E0,-1.482068024E0,1.858086090E0,9.586155023E0
3.562779167E-2,-9.327104187E0,-1.395547943E0,1.854343872E0,9.611504449E0
4.561379166E-2,-9.319619751E0,-1.368903351E0,1.870659943E0,9.603571071E0
5.560079166E-2,-9.433532867E0,-1.322948914E0,1.772164764E0,9.689288113E0
6.558679166E-2,-9.547895050E0,-1.330882416E0,1.920805664E0,9.829702045E0
7.557379166E-2,-9.602082367E0,-1.324146423E0,2.021246796E0,9.901453840E0
8.555979167E-2,-9.617949371E0,-1.341061249E0,1.945354614E0,9.903928511E0
9.554679166E-2,-9.578730927E0,-1.357377319E0,1.791175232E0,9.838844854E0
1.055327917E-1,-9.386380920E0,-1.466949463E0,1.826651459E0,9.674334244E0
1.155197917E-1,-9.128317566E0,-1.480271759E0,1.934577026E0,9.447749697E0
1.255057917E-1,-9.067244568E0,-1.437161407E0,1.847907257E0,9.364567165E0
1.354927917E-1,-8.978928223E0,-1.395547943E0,1.846110992E0,9.272369270E0
1.454787917E-1,-8.925189972E0,-1.268162842E0,1.976789246E0,9.229027508E0
1.554657917E-1,-9.200617218E0,-9.508227539E-1,1.908830566E0,9.444525146E0
1.654517917E-1,-9.515412598E0,-8.164022827E-1,1.885329437E0,9.734683183E0
1.754387917E-1,-9.759704590E0,-7.295828247E-1,1.904639282E0,9.970545400E0
1.854247917E-1,-9.949809265E0,-7.536827087E-1,1.853296051E0,1.014896292E1
1.954107917E-1,-1.003408401E1,-8.635542297E-1,1.921554108E0,1.025285024E1
2.053977917E-1,-1.002884491E1,-1.011446686E0,1.888173523E0,1.025504529E1
2.153837917E-1,-9.778565369E0,-1.272354126E0,1.701960754E0,1.000679250E1
2.253707917E-1,-9.324110413E0,-1.198856964E0,1.917512512E0,9.594433138E0
2.353567917E-1,-9.133706360E0,-1.072519684E0,2.141895905E0,9.442595427E0
2.453437917E-1,-9.255253601E0,-9.918374634E-1,1.992805939E0,9.519177290E0
2.553297917E-1,-9.315727844E0,-9.806108093E-1,1.891915741E0,9.556344908E0
2.653167917E-1,-9.455537109E0,-1.005309448E0,1.907932434E0,9.698352194E0
2.753027917E-1,-9.598190460E0,-1.143172760E0,1.974244537E0,9.865583894E0
2.852897917E-1,-9.699230347E0,-1.309925995E0,2.024839325E0,9.994545999E0
2.952757917E-1,-9.700577545E0,-1.535207520E0,2.030976563E0,1.002910428E1
3.052627917E-1,-9.611063690E0,-1.705253906E0,1.782642975E0,9.922613170E0
3.152487917E-1,-9.291328583E0,-1.714534607E0,1.682800598E0,9.596886662E0
3.252347917E-1,-9.013356628E0,-1.378034363E0,1.716630249E0,9.278275477E0
3.352217917E-1,-8.797206116E0,-1.113833771E0,1.828447723E0,9.053987088E0
3.452077917E-1,-8.752748566E0,-9.719288635E-1,1.837279358E0,8.996157436E0
3.551947917E-1,-8.923094330E0,-8.202941895E-1,1.854942627E0,9.150699816E0
3.651807917E-1,-9.221573639E0,-1.062490540E0,1.810485077E0,9.457492413E0
3.751677917E-1,-9.218879242E0,-1.328188019E0,1.611548767E0,9.452455095E0
3.851537917E-1,-9.112899628E0,-1.232387238E0,1.554667053E0,9.326344813E0
3.951407917E-1,-9.367669830E0,-1.130748596E0,1.327888641E0,9.528647264E0
4.051267917E-1,-9.386380920E0,-1.146914978E0,9.306147766E-1,9.501873742E0
4.151137917E-1,-9.043593750E0,-6.860234070E-1,6.423143005E-1,9.092292543E0
4.250997917E-1,-8.966054993E0,-2.880010986E-1,1.163829803E0,9.045860190E0
4.350867917E-1,-9.068741455E0,-4.237687683E-1,1.396146698E0,9.185362113E0
4.450727917E-1,-9.054820404E0,-4.927752686E-1,1.468296661E0,9.186321086E0
4.550597917E-1,-9.191486206E0,-9.654922485E-2,9.301657104E-1,9.238936556E0
4.650457917E-1,-9.463620300E0,9.505233765E-2,3.475772095E-1,9.470478027E0
4.750317917E-1,-9.544901276E0,2.020797729E-2,4.282594299E-1,9.554525360E0
4.850187917E-1,-9.668095093E0,-5.673202515E-2,8.454418945E-1,9.705156013E0
4.950047917E-1,-9.865684204E0,-5.276527405E-1,1.198557587E0,9.952219979E0
5.049917917E-1,-1.001761826E1,-5.643264771E-1,1.133892059E0,1.009736852E1
5.149777917E-1,-9.977052612E0,-2.832110596E-1,1.035097504E0,1.003460085E1
5.249647917E-1,-9.676777039E0,-2.993774414E-1,9.039701843E-1,9.723518026E0
5.349507917E-1,-9.609117737E0,-9.071136475E-2,4.665797424E-1,9.620866327E0
5.449377917E-1,-9.778864746E0,2.383044434E-1,2.058219910E-1,9.783933126E0
5.549237917E-1,-1.008273285E1,2.730322266E-1,5.213658142E-1,1.009989458E1
5.649107917E-1,-1.004037094E1,6.975494385E-1,8.467890930E-1,1.010013246E1
5.748967917E-1,-1.009889923E1,8.331674194E-1,1.120719452E0,1.019499611E1
5.848837917E-1,-1.046848068E1,5.545967102E-1,1.145867157E0,1.054559988E1
5.948697917E-1,-1.065813629E1,5.183720398E-1,5.718109131E-1,1.068604447E1
6.048567917E-1,-1.073881851E1,4.683760071E-1,2.495310974E-1,1.075192378E1
6.148427917E-1,-1.071367081E1,3.022215271E-1,1.896556091E-1,1.071961050E1
6.248287917E-1,-1.068612808E1,3.956272888E-1,1.856140137E-2,1.069346524E1
6.348157917E-1,-1.071890991E1,3.397933960E-1,-1.227447510E-2,1.072430137E1
6.448017917E-1,-1.073597443E1,4.451742554E-1,3.800596619E-1,1.075191947E1
6.547887917E-1,-1.052132080E1,5.626799011E-1,4.978646851E-1,1.054811212E1
6.647747917E-1,-1.022104523E1,3.984713745E-1,9.400451660E-2,1.022924151E1
6.747617917E-1,-9.950408020E0,1.495390320E-1,-1.704954529E-1,9.952992032E0
6.847477917E-1,-9.881551208E0,1.167572021E-1,4.879852295E-2,9.882361450E0
6.947347917E-1,-9.829160156E0,1.028361511E-1,2.924917603E-1,9.834048814E0
7.047207917E-1,-9.463769989E0,9.430389404E-2,1.354682922E-1,9.465209310E0
7.147077917E-1,-8.962761841E0,2.097138977E-1,-4.400848389E-2,8.965322999E0
7.246937917E-1,-8.829987946E0,3.734733582E-1,-1.666035461E-1,8.839452823E0
7.346807917E-1,-9.022787018E0,3.808081055E-1,-1.712438965E-1,9.032442906E0
7.446667917E-1,-9.147477722E0,3.408412170E-1,-4.221221924E-2,9.153922836E0
7.546537917E-1,-9.552685089E0,3.104544067E-1,7.694000244E-2,9.558038194E0
7.646397917E-1,-1.013123199E1,6.541397095E-2,1.860630798E-1,1.013315154E1
7.746267917E-1,-1.028211823E1,-1.739382935E-1,3.218307495E-1,1.028862405E1
7.846127917E-1,-1.012569351E1,-1.594184875E-1,1.856140137E-1,1.012864926E1
7.945987917E-1,-9.907746735E0,-7.708969116E-2,1.100212097E-1,9.908657469E0
8.045857917E-1,-9.515412598E0,-3.502716064E-2,2.390528870E-1,9.518479400E0
8.145717917E-1,-9.051676941E0,2.701881409E-1,-8.666976929E-2,9.056123272E0
8.245587917E-1,-1.058987823E1,-1.237925720E-1,-7.240443420E-1,1.061532316E1
8.345447917E-1,-1.064436493E1,6.197113037E-2,-1.104852448E0,1.070173089E1
8.445317917E-1,-9.953252106E0,2.354603577E-1,-2.130070496E-1,9.958315172E0
8.545177917E-1,-1.054646851E1,4.894821167E-1,-6.008505249E-1,1.057490482E1
8.645047917E-1,-1.063822769E1,8.807684326E-1,-5.261558533E-1,1.068758539E1
8.744907917E-1,-1.053778656E1,5.652246094E-1,5.673202515E-2,1.055308689E1
8.844777917E-1,-1.005249573E1,-1.643582153E-1,-1.389111328E-1,1.005479887E1
8.944637917E-1,-9.849817200E0,-5.632786560E-1,-4.314028931E-1,9.875337471E0
9.044507917E-1,-9.749974823E0,-5.736071777E-1,-1.065634003E0,9.824795676E0
9.144367917E-1,-9.636660461E0,3.188369751E-2,-1.172960815E0,9.707835933E0
9.244237917E-1,-9.608668671E0,3.400927734E-1,-8.714877319E-1,9.654101076E0
9.344097917E-1,-9.606123962E0,3.811074829E-1,-1.264570312E0,9.696494138E0
9.443957917E-1,-9.413624268E0,2.941383362E-1,-1.372495880E0,9.517698469E0
9.543827917E-1,-9.883197784E0,8.288264465E-1,-1.463356934E0,1.002526634E1
9.643687917E-1,-1.017868332E1,1.430874481E0,-1.603166199E0,1.040303503E1
9.743557917E-1,-9.499994659E0,4.825964355E-1,-1.484463043E0,9.627379102E0
9.843417917E-1,-9.735155640E0,-6.271957397E-2,-1.258283386E0,9.816336697E0
9.943287917E-1,-9.714797974E0,3.233276367E-2,-1.052311707E0,9.771678720E0
1.004314792E0,-9.746232605E0,1.826202393E-2,-8.220904541E-1,9.780859686E0
1.014301792E0,-9.741143188E0,2.095642090E-2,-8.860075378E-1,9.781376138E0
1.024287792E0,-9.687404938E0,-1.257385254E-2,-1.069825287E0,9.746306925E0
1.034274792E0,-9.701176300E0,-2.784210205E-1,-1.032253418E0,9.759912243E0
1.044260792E0,-9.748477936E0,-3.992198181E-1,-7.162605286E-1,9.782904869E0
1.054247792E0,-9.745633850E0,1.486408997E-1,-7.089257812E-1,9.772514979E0
1.064233792E0,-9.747729492E0,2.674937439E-1,-6.194119263E-1,9.771051852E0
1.074220792E0,-9.725276184E0,4.746629333E-1,-5.304968262E-1,9.751293691E0
1.084206792E0,-9.798773346E0,-1.736389160E-2,-4.212240601E-1,9.807838207E0
1.094192792E0,-9.783804474E0,2.035766602E-2,-3.171903992E-1,9.788965940E0
1.104179792E0,-9.764644318E0,2.035766602E-2,-3.454815674E-1,9.770775332E0
1.114165792E0,-9.752070465E0,1.496887207E-2,-3.655398560E-1,9.758930362E0
1.124152792E0,-9.770931244E0,9.729766846E-3,-2.415975952E-1,9.773922521E0
1.134138792E0,-9.764045563E0,1.526824951E-2,-2.264790344E-1,9.766683758E0
1.144125792E0,-9.779164124E0,1.766326904E-2,-2.818638611E-1,9.783241292E0
1.154111792E0,-9.755213928E0,4.191284180E-3,-2.954855347E-1,9.759688932E0
1.164098792E0,-9.754764862E0,1.826202393E-2,-2.618055725E-1,9.758294583E0
1.174084792E0,-9.778415680E0,1.197509766E-2,2.784210205E-2,9.778462650E0
1.184071792E0,-9.789492645E0,4.296066284E-2,4.610412598E-2,9.789695473E0
1.194057792E0,-9.774224396E0,1.811233521E-2,-1.562750244E-1,9.775490396E0
1.204044792E0,-9.776170349E0,2.948867798E-2,-1.362167358E-1,9.777163764E0
1.214030792E0,-9.791737976E0,1.107696533E-2,-1.526824951E-2,9.791756145E0
1.224017792E0,-9.779313812E0,8.981323242E-4,4.311035156E-2,9.779408875E0
1.234003792E0,-9.786947937E0,1.661544800E-2,-4.236190796E-2,9.787053720E0
1.243989792E0,-9.790241089E0,1.646575928E-2,-1.704954529E-1,9.791739396E0
1.253976792E0,-9.757758636E0,1.871109009E-2,-2.263293457E-1,9.760401051E0
1.263962792E0,-9.767787781E0,3.457809448E-2,-3.399430847E-1,9.773762585E0
1.273949792E0,-9.755812683E0,2.978805542E-2,-4.364923096E-1,9.765617951E0
1.283935792E0,-9.744436340E0,1.841171265E-2,-3.743714905E-1,9.751642559E0
1.293922792E0,-9.767488403E0,1.197509766E-3,-3.177891541E-1,9.772656808E0
1.303908792E0,-9.755812683E0,1.152603149E-2,-3.034190369E-1,9.760536720E0
1.313895792E0,-9.755662994E0,1.122665405E-2,-2.897973633E-1,9.759972798E0
1.323881792E0,-9.762698364E0,2.380050659E-2,-3.278182983E-1,9.768229658E0
1.333868792E0,-9.758058014E0,9.580078125E-3,-2.231858826E-1,9.760614731E0
1.343854792E0,-9.772727509E0,8.831634521E-3,-1.832189941E-1,9.774448841E0
1.353841792E0,-9.771529999E0,-1.392105103E-2,-1.487905884E-1,9.772672662E0
1.363827792E0,-9.778116302E0,-1.468446350E-1,-2.793191528E-1,9.783207090E0
1.373814792E0,-9.814191284E0,-5.462141418E-1,-2.366578674E-1,9.832227998E0
1.383800792E0,-9.774823151E0,-3.049159241E-1,4.385879517E-2,9.779676116E0
1.393787792E0,-9.770931244E0,3.547622681E-2,2.529739380E-2,9.771028395E0
1.403773792E0,-9.748178558E0,2.028282166E-1,-1.543290710E-1,9.751509727E0
1.413759792E0,-9.749825134E0,2.329156494E-1,-2.297721863E-1,9.755313173E0
1.423746792E0,-9.757758636E0,3.290158081E-1,-3.183879089E-1,9.768494043E0
1.433732792E0,-9.748477936E0,3.135978699E-1,-4.171824646E-1,9.762438573E0
1.443719792E0,-9.747879181E0,8.592132568E-2,-5.848338318E-1,9.765785253E0
1.453705792E0,-9.765692139E0,7.634124756E-3,-5.918692017E-1,9.783614382E0
1.463692792E0,-9.761351166E0,3.248245239E-2,-5.409750366E-1,9.776384080E0
1.473678792E0,-9.763297119E0,1.871109009E-2,-6.012995911E-1,9.781813837E0
1.483665792E0,-9.760752411E0,-8.532257080E-3,-5.508544922E-1,9.776287695E0
1.493651792E0,-9.755064240E0,-5.418731689E-2,-5.170248413E-1,9.768906247E0
1.503638792E0,-9.736353149E0,5.284011841E-2,-6.637197876E-1,9.759092616E0
1.513624792E0,-9.727671204E0,6.466552734E-2,-7.710466003E-1,9.758395439E0
1.523611792E0,-9.740245056E0,3.921844482E-2,-8.324189758E-1,9.775829028E0
1.533597792E0,-9.734556885E0,4.146377563E-2,-7.765850830E-1,9.765572250E0
1.543584792E0,-9.732161865E0,2.125579834E-2,-7.679031372E-1,9.762433181E0
1.553570792E0,-9.723629608E0,1.062789917E-2,-7.397616577E-1,9.751734872E0
1.563556792E0,-9.742041321E0,1.392105103E-2,-7.223977661E-1,9.768798361E0
1.573543792E0,-9.736053772E0,9.430389404E-3,-7.541317749E-1,9.765221284E0
1.583529792E0,-9.738299103E0,6.286926270E-3,-7.195536804E-1,9.764848511E0
1.593516792E0,-9.726922760E0,8.681945801E-3,-7.256909180E-1,9.753959661E0
1.603502792E0,-9.738448792E0,1.901046753E-2,-7.897576904E-1,9.770438244E0
1.613489792E0,-9.729168091E0,3.143463135E-3,-8.286767578E-1,9.764395874E0
1.623475792E0,-9.725874939E0,2.634521484E-2,-8.300239563E-1,9.761264117E0
1.633462792E0,-9.728419647E0,1.511856079E-2,-7.890092468E-1,9.760374634E0
1.643448792E0,-9.739197235E0,3.173400879E-2,-7.228468323E-1,9.766036933E0
1.653435792E0,-9.745184784E0,2.185455322E-2,-6.935078430E-1,9.769854514E0
1.663421792E0,-9.766440582E0,1.990859985E-2,-6.800358582E-1,9.790107597E0
1.673408792E0,-9.745933228E0,2.709365845E-2,-7.343728638E-1,9.773599749E0
1.683394792E0,-9.736053772E0,3.592529297E-2,-7.390132141E-1,9.764126905E0
1.693381792E0,-9.745035095E0,1.437011719E-2,-7.186555481E-1,9.771508650E0
1.703367792E0,-9.733509064E0,1.616638184E-2,-6.652166748E-1,9.756227410E0
1.713353792E0,-9.762398987E0,2.529739380E-2,-5.751040649E-1,9.779356759E0
1.723340792E0,-9.751621399E0,1.362167358E-2,-5.539979553E-1,9.767354769E0
1.733326792E0,-9.748178558E0,3.742218018E-3,-6.110293579E-1,9.767310586E0
1.743313792E0,-9.754315796E0,9.430389404E-3,-6.598278809E-1,9.776611806E0
1.753299792E0,-9.743089142E0,4.909790039E-2,-6.873706055E-1,9.767429292E0
1.763286792E0,-9.741592255E0,3.667373657E-2,-6.875202942E-1,9.765892114E0
1.773272792E0,-9.742041321E0,2.724334717E-2,-6.848258972E-1,9.766119895E0
1.783259792E0,-9.741592255E0,3.203338623E-2,-6.451583862E-1,9.762984950E0
1.793245792E0,-9.742640076E0,1.422042847E-2,-6.758445740E-1,9.766063882E0
1.803232792E0,-9.748777313E0,1.197509766E-2,-7.352709961E-1,9.776473083E0
1.813218792E0,-9.750274200E0,1.302291870E-2,-7.583230591E-1,9.779727524E0
1.823205792E0,-9.768087158E0,1.062789917E-2,-7.397616577E-1,9.796064873E0
1.833191792E0,-9.731263733E0,2.754272461E-2,-7.376660156E-1,9.759221464E0
1.843178792E0,-9.753866730E0,5.328918457E-2,-7.484436035E-1,9.782684895E0
1.853164667E0,-9.730066223E0,-1.317260742E-2,-7.497908020E-1,9.758921481E0
1.863150667E0,-9.739197235E0,-1.122665405E-2,-7.589218140E-1,9.768728225E0
1.873137667E0,-9.746232605E0,5.074447632E-2,-7.402107239E-1,9.774432818E0
1.883123667E0,-9.717791748E0,6.571334839E-2,-7.092251587E-1,9.743859350E0
1.893110667E0,-9.744286652E0,4.864883423E-2,-7.511380005E-1,9.773315576E0
1.903096667E0,-9.744286652E0,-2.020797729E-2,-7.429051208E-1,9.772586082E0
1.913083667E0,-9.768985291E0,1.182540894E-2,-6.990463257E-1,9.793971575E0
1.923069667E0,-9.743987274E0,3.278182983E-2,-6.971003723E-1,9.768946288E0
1.933056667E0,-9.745633850E0,-7.634124756E-3,-7.268884277E-1,9.772707107E0
1.943042667E0,-9.739496613E0,-3.143463135E-3,-7.020401001E-1,9.764766482E0
1.953029667E0,-9.737101593E0,2.080673218E-2,-6.737489319E-1,9.760405626E0
1.963015667E0,-9.738897858E0,4.445755005E-2,-6.843768311E-1,9.763015907E0
1.973002667E0,-9.748927002E0,4.385879517E-2,-6.753955078E-1,9.772392766E0
1.982988667E0,-9.749974823E0,7.933502197E-3,-6.453080750E-1,9.771309764E0
1.992975667E0,-9.729018402E0,1.616638184E-2,-7.453001404E-1,9.757537226E0
2.002961667E0,-9.742041321E0,5.538482666E-2,-6.586303711E-1,9.764437031E0
2.012947667E0,-9.737550659E0,-2.619552612E-2,-6.641688538E-1,9.760210003E0
2.022934667E0,-9.742490387E0,4.790039062E-3,-6.727011108E-1,9.765688336E0
2.032920667E0,-9.743987274E0,-7.634124756E-3,-6.406677246E-1,9.765029514E0
2.042907667E0,-9.750274200E0,4.221221924E-2,-7.120692444E-1,9.776332209E0
2.052893667E0,-9.743837585E0,4.266128540E-2,-7.062313843E-1,9.769490961E0
2.062880667E0,-9.762848053E0,3.876937866E-2,-6.951544189E-1,9.787642455E0
2.072866667E0,-9.738748169E0,3.817062378E-2,-7.131170654E-1,9.764896766E0
2.082853667E0,-9.743687897E0,1.901046753E-2,-6.616241455E-1,9.766143647E0
2.092839667E0,-9.760453033E0,-3.293151855E-2,-6.176156616E-1,9.780029499E0
2.102826667E0,-9.765243073E0,-1.811233521E-2,-6.246510315E-1,9.785217894E0
2.112812667E0,-9.759854279E0,-3.143463135E-3,-6.078858948E-1,9.778767340E0
2.122799667E0,-9.745783539E0,2.844085693E-2,-5.864804077E-1,9.763455584E0
2.132785667E0,-9.753567352E0,4.894821167E-2,-6.093827820E-1,9.772707885E0
2.142771667E0,-9.745334473E0,4.610412598E-2,-5.879772949E-1,9.763164798E0
2.152758667E0,-9.753267975E0,3.817062378E-2,-5.894741821E-1,9.771139800E0
2.162744667E0,-9.756112061E0,-1.407073975E-2,-6.044430542E-1,9.774828486E0
2.172731667E0,-9.752369843E0,-2.544708252E-2,-5.623805237E-1,9.768604657E0
2.182717667E0,-9.777367859E0,1.721420288E-2,-5.310955811E-1,9.791796622E0
2.192704667E0,-9.756710815E0,3.038681030E-2,-5.251080322E-1,9.770878555E0
2.202690667E0,-9.751322021E0,4.460723877E-2,-5.328918457E-1,9.765973822E0
2.212677667E0,-9.755812683E0,4.206253052E-2,-5.628295898E-1,9.772125025E0
2.222663667E0,-9.752519531E0,3.697311401E-2,-6.101312256E-1,9.771656171E0
2.232650667E0,-9.755962372E0,3.143463135E-3,-6.177653503E-1,9.775502325E0
2.242636667E0,-9.753866730E0,-1.796264648E-2,-6.450086975E-1,9.775186702E0
2.252623667E0,-9.752968597E0,-9.280700684E-3,-6.635700989E-1,9.775520849E0
2.262609667E0,-9.740095367E0,-1.047821045E-3,-6.426136780E-1,9.761270983E0
2.272596667E0,-9.752818909E0,1.990859985E-2,-6.765930176E-1,9.776280025E0
2.282582667E0,-9.754016418E0,5.284011841E-2,-7.334747314E-1,9.781697887E0
2.292568667E0,-9.749825134E0,4.999603271E-2,-6.441105652E-1,9.771206076E0
2.302555667E0,-9.745484161E0,2.799179077E-2,-6.173162842E-1,9.765056297E0
2.312541667E0,-9.735005951E0,5.837860107E-3,-6.707551575E-1,9.758088308E0
2.322528667E0,-9.748477936E0,7.484436035E-3,-6.959028625E-1,9.773288028E0
2.332514667E0,-9.752070465E0,4.490661621E-3,-6.987469482E-1,9.777072457E0
2.342501667E0,-9.757459259E0,1.017883301E-2,-6.514453125E-1,9.779186868E0
2.352487667E0,-9.746681671E0,4.475692749E-2,-6.873706055E-1,9.770992024E0
2.362474667E0,-9.754315796E0,7.544311523E-2,-6.267466736E-1,9.774721464E0
2.372460667E0,-9.752818909E0,-4.939727783E-3,-5.463638306E-1,9.768112126E0
2.382447667E0,-9.735155640E0,-3.293151855E-3,-8.530760193E-1,9.772461556E0
2.392433667E0,-9.727820892E0,1.137634277E-2,-9.439370728E-1,9.773517582E0
2.402420667E0,-9.725874939E0,-2.095642090E-3,-8.940907288E-1,9.766885171E0
2.412406667E0,-9.734856262E0,1.451980591E-2,-7.792794800E-1,9.766008078E0
2.422393667E0,-9.743388519E0,3.263214111E-2,-6.589297485E-1,9.765698803E0
2.432379667E0,-9.746681671E0,2.754272461E-2,-5.557942200E-1,9.762554451E0
2.442365667E0,-9.738149414E0,2.993774414E-2,-6.045927429E-1,9.756945355E0
2.452352667E0,-9.757159882E0,3.427871704E-2,-6.044430542E-1,9.775924273E0
2.462338667E0,-9.760153656E0,1.302291870E-2,-5.423222351E-1,9.775217767E0
2.472325667E0,-9.755962372E0,7.484436035E-3,-5.396278381E-1,9.770877955E0
2.482311667E0,-9.756561127E0,-7.933502197E-3,-5.763015747E-1,9.773570047E0
2.492298667E0,-9.758058014E0,3.218307495E-2,-5.878276062E-1,9.775800389E0
2.502284667E0,-9.777517548E0,3.876937866E-2,-4.914280701E-1,9.789936364E0
2.512271667E0,-9.764045563E0,2.559677124E-2,-4.698728943E-1,9.775378329E0
2.522257667E0,-9.761500854E0,3.278182983E-2,-4.599934387E-1,9.772388016E0
2.532244667E0,-9.764344940E0,2.320175171E-2,-4.405339050E-1,9.774305119E0
2.542230667E0,-9.775721283E0,2.260299683E-2,-4.581971741E-1,9.786479558E0
2.552217667E0,-9.772428131E0,6.436614990E-3,-5.144801331E-1,9.785963561E0
2.562203667E0,-9.756411438E0,9.131011963E-3,-6.050418091E-1,9.775158470E0
2.572189667E0,-9.757758636E0,2.993774414E-3,-6.758445740E-1,9.781136358E0
2.582176667E0,-9.749226379E0,3.637435913E-2,-7.408094788E-1,9.777399285E0
2.592162667E0,-9.707912292E0,6.646179199E-2,-8.957373047E-1,9.749375548E0
2.602149667E0,-9.735455017E0,2.664459229E-2,-1.067280579E0,9.793818569E0
2.612135667E0,-9.707163849E0,2.559677124E-2,-9.542655945E-1,9.753989338E0
2.622122667E0,-9.733209686E0,-3.817062378E-2,-9.547146606E-1,9.779995290E0
2.632108667E0,-9.737550659E0,-3.272195435E-1,-8.767268372E-1,9.782413578E0
2.642095667E0,-9.762099609E0,-1.339564362E0,-1.244512024E0,9.931859425E0
2.652081667E0,-9.647438049E0,-2.086660767E0,-1.248703308E0,9.949194642E0
2.662068667E0,-9.790839844E0,-2.232756958E0,-8.002359009E-1,1.007403226E1
2.672054667E0,-9.405092010E0,-1.984573059E0,-6.878196716E-1,9.636772377E0
2.682041667E0,-1.295945068E1,1.234482880E0,-1.349892883E0,1.308791507E1
2.692027667E0,-7.679779816E0,-2.149380341E0,-1.248403931E0,8.072011288E0
2.702013667E0,-9.042545929E0,-1.162931671E0,-1.047072601E0,9.176949819E0
2.712000667E0,-9.973759460E0,-4.848417664E-1,-1.850901031E0,1.015562819E1
2.721986667E0,-1.224438766E1,1.676513672E-2,-1.742077332E0,1.236770568E1
2.731973667E0,-9.858349457E0,-7.334747314E-1,-1.485211487E0,9.996544021E0
2.741959667E0,-1.029828461E1,-7.244934082E-2,-1.902244263E0,1.047274787E1
2.751946667E0,-1.034468811E1,-1.615141296E-1,-1.736089783E0,1.049059897E1
2.761932667E0,-1.035351974E1,-6.668632507E-1,-1.302441559E0,1.045640625E1
2.771919667E0,-1.031340317E1,-4.457730103E-1,-1.422491913E0,1.042057972E1
2.781905667E0,-1.028047165E1,2.335144043E-2,-1.662891998E0,1.041411794E1
2.791892667E0,-1.012240036E1,4.969665527E-2,-1.260528717E0,1.020070544E1
2.801878667E0,-9.728120270E0,-1.032852173E-1,-8.575666809E-1,9.766391986E0
2.811865667E0,-9.482930145E0,-3.953279114E-1,-7.246430969E-1,9.518789624E0
2.821851667E0,-9.369765472E0,-7.629634094E-1,-2.525248718E-1,9.404168596E0
2.831837667E0,-9.239536285E0,-5.034031677E-1,-4.442761230E-1,9.263899114E0
2.841824667E0,-9.447902985E0,-2.712359619E-1,-8.208929443E-1,9.487376085E0
2.851810708E0,-9.969867554E0,-4.885839844E-1,-5.912704468E-1,9.999328682E0
2.861797708E0,-1.011147308E1,-6.996450806E-1,-1.842668152E-1,1.013732437E1
2.871783708E0,-9.878108368E0,-4.230203247E-1,-4.465214539E-1,9.897239642E0
2.881770708E0,-9.770482178E0,-1.866618347E-1,-5.956114197E-1,9.790399256E0
2.891756708E0,-9.826914825E0,-1.838177490E-1,-6.746470642E-1,9.851760889E0
2.901743708E0,-9.776769104E0,-2.839595032E-1,-8.440946960E-1,9.817247219E0
2.911729708E0,-9.867779846E0,-7.170089722E-1,-3.653901672E-1,9.900539931E0
2.921716708E0,-1.006821304E1,-1.504970398E0,-4.305047607E-1,1.018916994E1
2.931702708E0,-9.827513580E0,-1.807341614E0,-2.195933533E-1,9.994735020E0
2.941689708E0,-9.302555237E0,-1.528022461E0,7.214996338E-2,9.427491299E0
2.951675708E0,-9.033564606E0,-1.260678406E0,-1.654060364E-1,9.122607011E0
2.961662708E0,-8.880283356E0,-1.104852448E0,2.200424194E-2,8.948777324E0
2.971648708E0,-9.119635620E0,-6.677613831E-1,-1.227447510E-1,9.144874268E0
2.981634708E0,-9.526489563E0,-2.817141724E-1,-6.602769470E-1,9.553498412E0
2.991621708E0,-9.690398712E0,-2.968327332E-1,-4.423301697E-1,9.705029256E0
3.001607708E0,-9.849517822E0,-1.086740112E-1,1.029858398E-1,9.850655687E0
3.011594708E0,-9.723779297E0,2.260299683E-1,3.930825806E-1,9.734345755E0
3.021580708E0,-9.235045624E0,2.306703186E-1,4.369413757E-1,9.248253578E0
3.031567708E0,-8.758586426E0,3.061134338E-1,6.010002136E-1,8.784517225E0
3.041553708E0,-8.246351624E0,1.587748260E0,6.239025879E-1,8.420956839E0
3.051540708E0,-8.707243195E0,1.411115570E0,7.783813477E-1,8.855123304E0
3.061526708E0,-8.814869385E0,1.425036621E0,6.976991272E-1,8.956530339E0
3.071513708E0,-8.987011414E0,1.253343658E0,1.299298096E-1,9.074917423E0
3.081499708E0,-9.783954163E0,2.342628479E-1,7.409591675E-2,9.787038793E0
3.091486708E0,-1.034244278E1,-6.156697083E-1,2.483335876E-1,1.036372720E1
3.101472708E0,-1.040860519E1,-5.560935974E-1,2.829116821E-1,1.042728830E1
3.111458708E0,-1.034229309E1,2.981799316E-1,-6.930587769E-2,1.034682275E1
3.121445708E0,-1.029080017E1,1.154698792E0,-2.073188782E-1,1.035745522E1
3.131431708E0,-1.024005569E1,1.664388885E0,-5.179229736E-2,1.037456570E1
3.141418708E0,-1.014530273E1,1.564247131E0,1.540296936E-1,1.026634121E1
3.151404708E0,-9.911938019E0,8.819659424E-1,1.987866211E-1,9.953084714E0
3.161391708E0,-9.545050964E0,1.496887207E-3,4.475692749E-2,9.545156014E0
3.171377708E0,-9.279054108E0,-5.607339478E-1,4.815486145E-1,9.308445454E0
3.181364708E0,-9.127419434E0,-3.802093506E-1,8.900491333E-1,9.178590966E0
3.191350708E0,-9.185498657E0,2.799179077E-2,9.701325989E-1,9.236629601E0
3.201337708E0,-8.906179504E0,3.767665100E-1,2.977308655E-1,8.919115990E0
3.211323708E0,-8.815468140E0,8.104147339E-1,2.630030823E-1,8.856546798E0
3.221310708E0,-8.755293274E0,7.900570679E-1,1.841171265E-2,8.790886729E0
3.231296708E0,-8.804241486E0,6.176156616E-1,1.883084106E-1,8.827886344E0
3.241282708E0,-8.899144135E0,7.926017761E-1,1.242416382E-1,8.935234742E0
3.251269708E0,-9.392817535E0,6.888674927E-1,-3.638932800E-1,9.425071777E0
3.261255708E0,-1.022493713E1,1.793270874E-1,-3.716770935E-1,1.023326153E1
3.271242708E0,-1.075693085E1,-1.481918335E-2,1.483415222E-1,1.075796384E1
3.281228708E0,-1.058733353E1,2.354603577E-1,2.749781799E-1,1.059352093E1
3.291215708E0,-1.011491592E1,6.324348450E-1,3.607498169E-2,1.013473233E1
3.301201708E0,-9.612560577E0,5.806425476E-1,1.329235840E-1,9.630998666E0
3.311188708E0,-9.382039948E0,6.128256226E-1,2.636018372E-1,9.405727763E0
3.321174708E0,-9.337283020E0,7.060816956E-1,4.794529724E-1,9.376208227E0
3.331161708E0,-9.407936096E0,1.881587219E-1,-2.754272461E-2,9.409857804E0
3.341147708E0,-9.906998291E0,-3.134481812E-1,4.173321533E-1,9.920737424E0
3.351134708E0,-1.025083328E1,-5.498066711E-1,5.378315735E-1,1.027964655E1
3.361120708E0,-1.026176056E1,-5.634283447E-1,4.128414917E-1,1.028550530E1
3.371106708E0,-1.005519012E1,-3.035687256E-1,3.126997375E-1,1.006463032E1
3.381093708E0,-9.993368683E0,-1.097218323E-1,1.221459961E-1,9.994717413E0
3.391079708E0,-9.901010742E0,-1.287322998E-1,1.332229614E-1,9.902743765E0
3.401066708E0,-9.770631866E0,-2.412982178E-1,4.532574463E-1,9.784115403E0
3.411052708E0,-9.547445984E0,-4.481680298E-1,7.062313843E-1,9.584014929E0
3.421039708E0,-9.257199554E0,-1.320254517E-1,7.562274170E-1,9.288974874E0
3.431025708E0,-9.155560913E0,3.758683777E-1,5.541476440E-1,9.180013741E0
3.441012708E0,-9.242080994E0,2.471360779E-1,4.402345276E-1,9.255859969E0
3.450998708E0,-9.486971741E0,-6.137237549E-3,3.156935120E-1,9.492224864E0
3.460985708E0,-9.799372101E0,4.685256958E-2,1.492396545E-1,9.800620450E0
3.470971708E0,-1.209814178E1,1.203497314E0,2.887495422E-1,1.216128351E1
3.480957708E0,-1.093506042E1,5.668711853E-1,-7.291337585E-1,1.097399314E1
3.490944708E0,-1.058748322E1,3.258723450E-1,2.680924988E-1,1.059588917E1
3.500930708E0,-1.086246140E1,3.143463135E-3,2.877017212E-1,1.086627120E1
3.510917708E0,-1.066337540E1,-6.849755859E-1,6.542893982E-1,1.070536599E1
3.520903708E0,-1.027463379E1,-6.369255066E-1,1.906884613E0,1.046947862E1
3.530890708E0,-9.753567352E0,-3.065625000E-1,1.043330383E0,9.813999947E0
3.540876708E0,-9.364526367E0,-2.668949890E-1,7.330256653E-1,9.396963001E0
3.550863708E0,-9.244775391E0,-1.287322998E-1,1.054107971E0,9.305567562E0
3.560849708E0,-9.113797760E0,2.215393066E-2,1.306183777E0,9.206949357E0
3.570836708E0,-9.226962433E0,1.365161133E-1,9.639953613E-1,9.278187293E0
3.580822708E0,-9.586215363E0,-8.846603394E-2,7.155120850E-1,9.613288135E0
3.590809708E0,-9.815239105E0,-3.197351074E-1,7.535330200E-1,9.849312730E0
3.600795708E0,-1.003602997E1,-2.350112915E-1,6.331832886E-1,1.005872998E1
3.610781708E0,-1.005249573E1,-8.487350464E-2,5.210664368E-1,1.006634909E1
3.620768708E0,-9.937534790E0,7.529342651E-2,4.071533203E-1,9.946157078E0
3.630754708E0,-9.668544159E0,2.826123047E-1,6.183641052E-1,9.692419204E0
3.640741708E0,-9.760003967E0,6.002517700E-2,5.445675659E-1,9.775368755E0
3.650727708E0,-9.925410004E0,-1.149609375E-1,3.803590393E-1,9.933360597E0
3.660714708E0,-9.991273041E0,-1.615141296E-1,3.933819580E-1,1.000031865E1
3.670700708E0,-1.002121078E1,-1.749861145E-1,2.499801636E-1,1.002585537E1
3.680687708E0,-9.782307587E0,-7.888595581E-2,1.272354126E-1,9.783453049E0
3.690673708E0,-9.708660736E0,-2.369572449E-1,5.108876038E-1,9.724980626E0
3.700660708E0,-9.884095917E0,-4.080514526E-1,5.507048035E-1,9.907831945E0
3.710646708E0,-9.869875488E0,-2.228865051E-1,5.107379150E-1,9.885594255E0
3.720633708E0,-9.771829376E0,1.288819885E-1,3.553610229E-1,9.779138069E0
3.730619708E0,-9.772278442E0,1.698966980E-1,1.916015625E-1,9.775633074E0
3.740605708E0,-9.829908600E0,1.113684082E-1,1.757345581E-1,9.832110081E0
3.750592708E0,-9.859097900E0,1.273851013E-1,2.025288391E-1,9.862000624E0
3.760578708E0,-9.621841278E0,3.110531616E-1,5.397775269E-1,9.641988562E0
3.770565708E0,-9.248816986E0,5.047503662E-1,4.911286926E-1,9.275591408E0
3.780551708E0,-9.303153992E0,1.850152588E-1,5.625302124E-1,9.321981821E0
3.790538708E0,-9.517059174E0,-2.546205139E-1,4.995112610E-1,9.533559588E0
3.800524708E0,-9.506281586E0,-1.664538574E-1,4.495152283E-1,9.518359124E0
3.810511708E0,-9.589209137E0,-2.694396973E-1,4.628375244E-1,9.604152654E0
3.820497708E0,-9.703122253E0,-1.731898499E-1,4.989125061E-1,9.717483721E0
3.830484708E0,-9.695787506E0,-1.767823792E-1,5.207670593E-1,9.711371978E0
3.840470708E0,-9.538764038E0,-1.062789917E-1,4.983137512E-1,9.552362597E0
3.850456917E0,-9.495204620E0,-4.340972900E-2,5.882766724E-1,9.513509585E0
3.860443917E0,-9.597891083E0,-1.796264648E-3,4.385879517E-1,9.607906945E0
3.870429917E0,-9.825717316E0,2.118095398E-1,3.826043701E-1,9.835444583E0
3.880416917E0,-1.112726074E1,7.828720093E-2,8.150550842E-1,1.115734625E1
3.890402917E0,-1.014245865E1,2.219883728E-1,-5.972579956E-2,1.014506350E1
3.900389917E0,-9.650581512E0,1.860630798E-1,6.146218872E-1,9.671923442E0
3.910375917E0,-9.774823151E0,-2.480342102E-1,1.078806610E0,9.837302084E0
3.920362917E0,-9.705217896E0,4.490661621E-4,5.239105225E-1,9.719348581E0
3.930348917E0,-9.751022644E0,2.782713318E-1,3.471281433E-1,9.761166707E0
3.940335917E0,-9.729168091E0,1.513352966E-1,3.644920349E-1,9.737169432E0
3.950321917E0,-9.732910309E0,8.726852417E-2,4.977149963E-1,9.746018628E0
3.960307917E0,-9.757608948E0,5.254074097E-2,3.999682617E-1,9.765944272E0
3.970294917E0,-9.701475677E0,1.092727661E-2,5.526507568E-1,9.717210124E0
3.980280917E0,-9.664053497E0,-5.239105225E-2,8.035290527E-1,9.697542666E0
3.990267917E0,-9.721683655E0,-8.232879639E-3,1.141526184E0,9.788477047E0
4.000253917E0,-9.780810699E0,3.966751099E-2,1.056203613E0,9.837753683E0
4.010240917E0,-9.756411438E0,4.236190796E-2,1.302142181E0,9.843014423E0
4.020226917E0,-9.625433807E0,7.484436035E-3,1.281784515E0,9.710406971E0
4.030213917E0,-9.766590271E0,1.790277100E-1,1.528621216E0,9.887113798E0
4.040199917E0,-9.716594238E0,1.100212097E-1,9.964778137E-1,9.768176713E0
4.050186917E0,-9.753267975E0,-1.029858398E-1,1.091081085E0,9.814647228E0
4.060172917E0,-9.690847778E0,-2.953358459E-1,1.014290771E0,9.748258290E0
4.070158917E0,-9.718989258E0,-4.691244507E-1,9.141490173E-1,9.773151916E0
4.080145917E0,-9.702523499E0,-4.956193542E-1,1.304686890E0,9.802387906E0
4.090131917E0,-9.724527740E0,-2.646496582E-1,1.233285370E0,9.805991639E0
4.100118917E0,-9.747729492E0,-2.694396973E-3,1.097667389E0,9.809337960E0
4.110104917E0,-9.743089142E0,2.002835083E-1,9.172924805E-1,9.788223792E0
4.120091917E0,-9.712702332E0,2.894979858E-1,7.822732544E-1,9.748453575E0
4.130077917E0,-9.710007935E0,1.395098877E-1,7.961943054E-1,9.743594946E0
4.140064917E0,-9.724976807E0,1.053808594E-1,6.759942627E-1,9.749012630E0
4.150050917E0,-9.728868713E0,3.381468201E-1,6.734495544E-1,9.758010249E0
4.160037917E0,-9.730066223E0,2.495310974E-1,5.679190063E-1,9.749819817E0
4.170023917E0,-9.745484161E0,8.038284302E-2,1.721420288E-1,9.747335832E0
4.180009917E0,-9.716893616E0,2.868035889E-1,2.392025757E-1,9.724067858E0
4.189996917E0,-9.722132721E0,5.474116516E-1,4.589456177E-1,9.748341153E0
4.199982917E0,-9.722881165E0,2.700384521E-1,5.679190063E-1,9.743196134E0
4.209969917E0,-9.720186768E0,-1.347198486E-3,7.053332520E-1,9.745744077E0
4.219955917E0,-9.699529724E0,-2.155517578E-2,8.515791321E-1,9.736864409E0
4.229942917E0,-9.856852570E0,-3.143463135E-2,1.093176727E0,9.917336642E0
4.239928917E0,-9.756112061E0,1.167572021E-1,1.835932159E0,9.928041180E0
4.249915917E0,-9.649982758E0,1.145118713E-1,1.093476105E0,9.712413201E0
4.259901917E0,-9.713151398E0,1.188528442E-1,9.955796814E-1,9.764763949E0
4.269888917E0,-9.694290619E0,6.631210327E-2,1.001567230E0,9.746117423E0
4.279874917E0,-9.698032837E0,7.634124756E-2,9.461824036E-1,9.744379407E0
4.289860917E0,-9.733359375E0,7.933502197E-2,8.050259399E-1,9.766915866E0
4.299847917E0,-9.737850037E0,5.254074097E-2,8.093669128E-1,9.771568895E0
4.309833917E0,-9.756860504E0,4.924758911E-2,7.921527100E-1,9.789088729E0
4.319820917E0,-9.733958130E0,5.553451538E-2,8.039781189E-1,9.767261938E0
4.329806917E0,-9.732012177E0,5.628295898E-2,9.050180054E-1,9.774164228E0
4.339793917E0,-9.757309570E0,5.418731689E-2,6.709048462E-1,9.780497923E0
4.349779917E0,-9.779313812E0,5.209167480E-2,6.066883850E-1,9.798253057E0
4.359766917E0,-9.723779297E0,4.191284180E-3,7.940986633E-1,9.756151601E0
4.369752917E0,-9.697883148E0,4.730163574E-2,9.813592529E-1,9.747524865E0
4.379739917E0,-9.705666962E0,9.639953613E-2,8.325686646E-1,9.741788061E0
4.389725917E0,-9.725575562E0,6.271957397E-2,7.676037598E-1,9.756022206E0
4.399711917E0,-9.746232605E0,5.403762817E-2,7.608677673E-1,9.776036508E0
4.409698917E0,-9.747130737E0,3.742218018E-2,7.466473389E-1,9.775757785E0
4.419684917E0,-9.736502838E0,4.565505981E-2,7.840695190E-1,9.768128629E0
4.429671917E0,-9.721833344E0,6.152206421E-2,8.171507263E-1,9.756308925E0
4.439657917E0,-9.742490387E0,4.999603271E-2,7.794291687E-1,9.773746895E0
4.449644917E0,-9.747579803E0,5.792953491E-2,7.677534485E-1,9.777940131E0
4.459630917E0,-9.725725250E0,3.667373657E-2,7.815248108E-1,9.757143928E0
4.469617917E0,-9.754465485E0,5.269042969E-2,7.761360168E-1,9.785436132E0
4.479603917E0,-9.736951904E0,5.284011841E-2,7.682025146E-1,9.767351717E0
4.489590917E0,-9.733359375E0,5.149291992E-2,7.661068726E-1,9.763598516E0
4.499576917E0,-9.738149414E0,4.805007935E-2,7.747888184E-1,9.769040922E0
4.509562917E0,-9.751022644E0,5.673202515E-2,7.863148499E-1,9.782839678E0
4.519549917E0,-9.739795990E0,4.805007935E-2,7.696994019E-1,9.770280032E0
4.529535917E0,-9.731712799E0,3.457809448E-2,7.701484680E-1,9.762200485E0
4.539522917E0,-9.728868713E0,4.131408691E-2,7.732919312E-1,9.759640040E0
4.549508917E0,-9.747130737E0,3.353027344E-2,7.599696350E-1,9.776770210E0
4.559495917E0,-9.730964355E0,5.897735596E-2,8.156538391E-1,9.765266858E0
4.569481917E0,-9.733658752E0,6.002517700E-2,8.204438782E-1,9.768359324E0
4.579468917E0,-9.739945679E0,6.885681152E-2,7.438032532E-1,9.768547812E0
4.589454917E0,-9.759255524E0,4.251159668E-2,7.153623962E-1,9.785531103E0
4.599440917E0,-9.734407196E0,5.822891235E-2,7.500901794E-1,9.763437373E0
4.609427917E0,-9.743687897E0,4.475692749E-2,7.786807251E-1,9.774855533E0
4.619413917E0,-9.742041321E0,4.864883423E-2,7.683522034E-1,9.772415306E0
4.629400917E0,-9.731413422E0,4.969665527E-2,7.729925537E-1,9.762192091E0
4.639386917E0,-9.727371826E0,4.894821167E-2,8.274792480E-1,9.762626720E0
4.649373917E0,-9.714498596E0,7.604187012E-2,9.747729492E-1,9.763577605E0
4.659359917E0,-9.742191010E0,5.493576050E-2,8.207432556E-1,9.776856504E0
4.669346917E0,-9.741442566E0,4.520599365E-2,6.703060913E-1,9.764581768E0
4.679332917E0,-9.728868713E0,4.370910645E-2,7.366181946E-1,9.756813173E0
4.689319917E0,-9.732760620E0,3.203338623E-2,7.192543030E-1,9.759353574E0
4.699305917E0,-9.748777313E0,2.649490356E-2,7.432044983E-1,9.777101514E0
4.709291917E0,-9.734856262E0,4.296066284E-2,7.858657837E-1,9.766619533E0
4.719278917E0,-9.736652527E0,4.281097412E-2,7.617658997E-1,9.766500012E0
4.729264917E0,-9.737850037E0,4.655319214E-2,7.810757446E-1,9.769235889E0
4.739251917E0,-9.739646301E0,4.041595459E-2,7.908055115E-1,9.771781664E0
4.749237917E0,-9.741741943E0,5.014572144E-2,7.711962891E-1,9.772348459E0
4.759224917E0,-9.729467468E0,5.014572144E-2,7.888595581E-1,9.761524021E0
4.769210917E0,-9.735005951E0,4.685256958E-2,7.765850830E-1,9.766044256E0
4.779197917E0,-9.734706573E0,5.748046875E-2,8.454418945E-1,9.771519231E0
4.789183917E0,-9.725126495E0,5.553451538E-2,8.605604553E-1,9.763284987E0
4.799169917E0,-9.733059998E0,4.625381470E-2,6.849755859E-1,9.757242842E0
4.809156917E0,-9.730664978E0,4.400848389E-2,7.297325134E-1,9.758088297E0
4.819142917E0,-9.737700348E0,5.328918457E-2,7.918533325E-1,9.769988716E0
4.829129917E0,-9.749226379E0,4.894821167E-2,7.840695190E-1,9.780826956E0
4.839115917E0,-9.735904083E0,4.415817261E-2,7.961943054E-1,9.768505701E0
4.849102667E0,-9.733209686E0,4.490661621E-2,7.991880798E-1,9.766068246E0
4.859088667E0,-9.736802216E0,3.802093506E-2,7.979905701E-1,9.769521581E0
4.869075667E0,-9.739496613E0,5.777984619E-2,7.975415039E-1,9.772267149E0
4.879061667E0,-9.736053772E0,4.071533203E-2,7.786807251E-1,9.767228085E0
4.889047667E0,-9.729617157E0,5.149291992E-2,7.870632935E-1,9.761535236E0
4.899034667E0,-9.734407196E0,5.867797852E-2,7.961943054E-1,9.767090249E0
4.909020667E0,-9.734257507E0,4.655319214E-2,7.942483521E-1,9.766717302E0
4.919007667E0,-9.731563110E0,3.173400879E-2,7.960446167E-1,9.764118734E0
4.928993667E0,-9.738448792E0,3.772155762E-2,7.885601807E-1,9.770395844E0
4.938980667E0,-9.731413422E0,5.673202515E-2,7.869136047E-1,9.763342600E0
4.948966667E0,-9.739197235E0,3.682342529E-2,8.006849670E-1,9.772124394E0
4.958953667E0,-9.737550659E0,4.939727783E-2,7.917036438E-1,9.769806937E0
4.968939667E0,-9.733359375E0,6.511459351E-2,7.762857056E-1,9.764483813E0
4.978925667E0,-9.741442566E0,6.301895142E-2,7.825726318E-1,9.773028936E0
4.988912667E0,-9.731114044E0,3.861968994E-2,7.815248108E-1,9.762522884E0
4.998898667E0,-9.730215912E0,4.505630493E-2,7.664062500E-1,9.760456460E0
5.008885667E0,-9.731862488E0,4.939727783E-2,7.969427490E-1,9.764563755E0
5.018871667E0,-9.739047546E0,4.266128540E-2,7.861651611E-1,9.770819963E0
5.028858667E0,-9.744286652E0,4.565505981E-2,7.813751221E-1,9.775671528E0
5.038844667E0,-9.727371826E0,6.331832886E-2,7.843688965E-1,9.759149882E0
5.048831667E0,-9.734856262E0,5.568420410E-2,7.943980408E-1,9.767374029E0
5.058817667E0,-9.744286652E0,4.700225830E-2,7.879614258E-1,9.776206563E0
5.068803667E0,-9.733359375E0,4.790039063E-2,7.924520874E-1,9.765682745E0
5.078790667E0,-9.721234589E0,3.382965088E-2,7.896080017E-1,9.753308524E0
5.088776667E0,-9.727820892E0,6.077362061E-2,8.051756287E-1,9.761275559E0
5.098763667E0,-9.740245056E0,4.086502075E-2,7.996371460E-1,9.773098959E0
5.108749667E0,-9.739346924E0,4.116439819E-2,7.932005310E-1,9.771680515E0
5.118736667E0,-9.738448792E0,5.418731689E-2,7.984396362E-1,9.771275607E0
5.128722667E0,-9.736353149E0,4.715194702E-2,7.837701416E-1,9.767962510E0
5.138709667E0,-9.739047546E0,6.152206421E-2,7.914042664E-1,9.771343448E0
5.148695667E0,-9.729617157E0,5.748046875E-2,7.985893250E-1,9.762504747E0
5.158682667E0,-9.743388519E0,5.598358154E-2,7.975415039E-1,9.776135558E0
5.168668667E0,-9.737400970E0,5.388793945E-2,7.909552002E-1,9.769620857E0
5.178654667E0,-9.732461243E0,5.433700562E-2,7.797285461E-1,9.763796954E0
5.188641667E0,-9.732012177E0,5.553451538E-2,7.764353943E-1,9.763093619E0
5.198627667E0,-9.722132721E0,5.388793945E-2,7.918533325E-1,9.754475909E0
5.208614667E0,-9.743388519E0,5.119354248E-2,7.967930603E-1,9.776048271E0
5.218600667E0,-9.730215912E0,5.343887329E-2,7.882608032E-1,9.762239113E0
5.228587667E0,-9.721983032E0,4.340972900E-2,7.785310364E-1,9.753201990E0
5.238573667E0,-9.733958130E0,3.966751099E-2,7.899073792E-1,9.766036456E0
5.248560667E0,-9.742640076E0,5.493576050E-2,7.825726318E-1,9.774173802E0
5.258546667E0,-9.734556885E0,6.571334839E-2,7.788304138E-1,9.765884128E0
5.268532667E0,-9.729766846E0,4.460723877E-2,7.806266785E-1,9.761133678E0
5.278519667E0,-9.739047546E0,5.328918457E-2,7.912545776E-1,9.771282958E0
5.288505667E0,-9.742789764E0,5.373825073E-2,7.818241882E-1,9.774256455E0
5.298492667E0,-9.745484161E0,3.457809448E-2,7.926017761E-1,9.777723393E0
5.308478667E0,-9.736203461E0,4.924758911E-2,7.981402588E-1,9.768987206E0
5.318465667E0,-9.738299103E0,4.535568237E-2,7.906558228E-1,9.770448464E0
5.328451667E0,-9.730515289E0,3.607498169E-2,7.896080017E-1,9.762566773E0
5.338437667E0,-9.733059998E0,6.361770630E-2,7.821235657E-1,9.764641386E0
5.348424667E0,-9.721234589E0,5.403762817E-2,8.000862122E-1,9.754253428E0
5.358410667E0,-9.735904083E0,3.891906738E-2,7.857160950E-1,9.767634964E0
5.368397667E0,-9.739197235E0,6.735992432E-2,7.917036438E-1,9.771555393E0
5.378383667E0,-9.725874939E0,5.134323120E-2,7.815248108E-1,9.757359299E0
5.388370667E0,-9.737999725E0,4.505630493E-2,7.988887024E-1,9.770818383E0
5.398356667E0,-9.726324005E0,6.077362061E-2,8.032296753E-1,9.759623456E0
5.408343667E0,-9.742939453E0,5.598358154E-2,8.002359009E-1,9.775908185E0
5.418329667E0,-9.735155640E0,2.634521484E-2,8.069718933E-1,9.768579888E0
5.428315667E0,-9.728269958E0,4.385879517E-2,7.842192078E-1,9.759926216E0
5.438302667E0,-9.737850037E0,3.323089600E-2,7.897576904E-1,9.769879469E0
5.448288667E0,-9.730964355E0,5.358856201E-2,7.785310364E-1,9.762205161E0
5.458275667E0,-9.740394745E0,6.047424316E-2,7.764353943E-1,9.771478846E0
5.468261667E0,-9.730814667E0,5.239105225E-2,7.688012695E-1,9.761278312E0
5.478248667E0,-9.731413422E0,3.787124634E-2,7.933502197E-1,9.763772119E0
5.488234667E0,-9.728719025E0,4.640350342E-2,7.882608032E-1,9.760711154E0
5.498221667E0,-9.735754395E0,3.847000122E-2,7.906558228E-1,9.767882585E0
5.508207667E0,-9.734556885E0,4.221221924E-2,7.970924377E-1,9.767227650E0
5.518193667E0,-9.743687897E0,4.311035156E-2,7.891589355E-1,9.775688424E0
5.528180667E0,-9.738149414E0,5.508544922E-2,7.800279236E-1,9.769494971E0
5.538166667E0,-9.721833344E0,5.284011841E-2,7.818241882E-1,9.753362738E0
5.548153667E0,-9.732610931E0,6.885681152E-2,7.961943054E-1,9.765366464E0
5.558139667E0,-9.723629608E0,6.092330933E-2,7.845185852E-1,9.755416640E0
5.568126667E0,-9.737251282E0,6.586303711E-2,7.749385071E-1,9.768261368E0
5.578112667E0,-9.730515289E0,4.176315308E-2,7.937992859E-1,9.762929338E0
5.588099667E0,-9.729018402E0,4.475692749E-2,7.863148499E-1,9.760844907E0
5.598085667E0,-9.724677429E0,7.095245361E-2,7.900570679E-1,9.756975737E0
5.608071667E0,-9.740993500E0,6.032455444E-2,7.870632935E-1,9.772924948E0
5.618058667E0,-9.730664978E0,5.194198608E-2,7.979905701E-1,9.763469047E0
5.628044667E0,-9.715396729E0,4.655319214E-2,7.984396362E-1,9.748261724E0
5.638031667E0,-9.738748169E0,5.403762817E-2,7.930508423E-1,9.771134305E0
5.648017667E0,-9.739945679E0,6.167175293E-2,7.816744995E-1,9.771456404E0
5.658004667E0,-9.744586029E0,5.149291992E-2,7.949967957E-1,9.777097131E0
5.667990667E0,-9.742490387E0,4.326004028E-2,7.949967957E-1,9.774968556E0
5.677977667E0,-9.749675446E0,5.014572144E-2,8.000862122E-1,9.782577566E0
5.687963667E0,-9.734407196E0,4.894821167E-2,7.755372620E-1,9.765374413E0
5.697949667E0,-9.738897858E0,5.433700562E-2,7.830216980E-1,9.770476292E0
5.707936667E0,-9.730215912E0,4.670288086E-2,7.969427490E-1,9.762909433E0
5.717922667E0,-9.737400970E0,6.661148071E-2,7.918533325E-1,9.769772078E0
5.727909667E0,-9.739496613E0,3.876937866E-2,7.967930603E-1,9.772112183E0
5.737895667E0,-9.739197235E0,5.897735596E-2,7.915539551E-1,9.771489077E0
5.747882667E0,-9.737101593E0,4.161346436E-2,7.704478455E-1,9.767623508E0
5.757868667E0,-9.726473694E0,3.263214111E-2,7.943980408E-1,9.758915084E0
5.767854667E0,-9.727970581E0,5.688171387E-2,7.930508423E-1,9.760408639E0
5.777841667E0,-9.732012177E0,4.909790039E-2,7.807763672E-1,9.763405315E0
5.787827667E0,-9.731263733E0,5.059478760E-2,7.767347717E-1,9.762344523E0
5.797814667E0,-9.737700348E0,7.469467163E-2,7.764353943E-1,9.768891405E0
5.807800667E0,-9.732610931E0,5.852828979E-2,7.755372620E-1,9.763636574E0
5.817787667E0,-9.747729492E0,2.903961182E-2,7.801776123E-1,9.778944251E0
5.827773667E0,-9.746981049E0,4.580474854E-2,7.861651611E-1,9.778741908E0
5.837760667E0,-9.740694122E0,5.403762817E-2,7.988887024E-1,9.773549264E0
5.847746667E0,-9.725575562E0,5.209167480E-2,7.930508423E-1,9.757994834E0
5.857733417E0,-9.734257507E0,5.209167480E-2,7.725434875E-1,9.765004158E0
5.867720417E0,-9.728569336E0,4.939727783E-2,7.738906860E-1,9.759426633E0
5.877706417E0,-9.728419647E0,5.373825073E-2,7.909552002E-1,9.760668356E0
5.887693417E0,-9.731712799E0,4.176315308E-2,8.020321655E-1,9.764795633E0
5.897679417E0,-9.723030853E0,4.236190796E-2,7.903564453E-1,9.755192813E0
5.907666417E0,-9.741292877E0,3.832031250E-2,7.915539551E-1,9.773474972E0
5.917652417E0,-9.721533966E0,4.296066284E-2,7.963439941E-1,9.754190486E0
5.927638417E0,-9.742041321E0,4.505630493E-2,8.060737610E-1,9.775436260E0
5.937625417E0,-9.748028870E0,5.194198608E-2,7.771838379E-1,9.779099117E0
5.947611417E0,-9.741741943E0,4.595443726E-2,7.685018921E-1,9.772115588E0
5.957598417E0,-9.740245056E0,3.951782227E-2,7.803273010E-1,9.771532434E0
5.967584417E0,-9.731413422E0,4.775070190E-2,7.773335266E-1,9.762527066E0
5.977571417E0,-9.729018402E0,4.984634399E-2,7.954458618E-1,9.761609388E0
5.987557417E0,-9.737850037E0,5.733078003E-2,7.948471069E-1,9.770403885E0
5.997543417E0,-9.736502838E0,5.463638306E-2,7.978408813E-1,9.769289776E0
6.007530417E0,-9.733658752E0,4.595443726E-2,7.890092468E-1,9.765693017E0
6.017516417E0,-9.733059998E0,4.849914551E-2,7.885601807E-1,9.765072260E0
6.027503417E0,-9.722132721E0,5.074447632E-2,7.803273010E-1,9.753530148E0
6.037489417E0,-9.728569336E0,5.957611084E-2,7.921527100E-1,9.760948548E0
6.047476417E0,-9.742041321E0,5.388793945E-2,7.848179626E-1,9.773751186E0
6.057462417E0,-9.727671204E0,3.757186890E-2,7.806266785E-1,9.759015150E0
6.067449417E0,-9.729916534E0,2.664459229E-2,7.863148499E-1,9.761673870E0
6.077435417E0,-9.737999725E0,4.745132446E-2,7.882608032E-1,9.769966498E0
6.087421417E0,-9.733958130E0,3.607498169E-2,7.891589355E-1,9.765962016E0
6.097408417E0,-9.726174316E0,3.412902832E-2,7.920030212E-1,9.758427148E0
6.107394417E0,-9.737850037E0,4.176315308E-2,7.840695190E-1,9.769454054E0
6.117381417E0,-9.733059998E0,5.508544922E-2,7.964936829E-1,9.765751047E0
6.127367417E0,-9.737999725E0,4.221221924E-2,7.906558228E-1,9.770135984E0
6.137354417E0,-9.725425873E0,4.146377563E-2,7.906558228E-1,9.757600334E0
6.147340417E0,-9.740694122E0,4.879852295E-2,7.952961731E-1,9.773228703E0
6.157326417E0,-9.749076691E0,5.643264771E-2,7.885601807E-1,9.781079088E0
6.167313417E0,-9.740694122E0,3.876937866E-2,7.872129822E-1,9.772529321E0
6.177299417E0,-9.733359375E0,5.209167480E-2,7.855664063E-1,9.765147866E0
6.187286417E0,-9.742640076E0,5.807922363E-2,7.836204529E-1,9.774275925E0
6.197272417E0,-9.735155640E0,5.882766724E-2,7.955955505E-1,9.767788301E0
6.207259417E0,-9.748477936E0,6.496490479E-2,7.990383911E-1,9.781385631E0
6.217245417E0,-9.739496613E0,5.837860107E-2,7.993377686E-1,9.772417469E0
6.227232417E0,-9.739346924E0,3.951782227E-2,7.752378845E-1,9.770232031E0
6.237218417E0,-9.754465485E0,3.607498169E-2,8.111631775E-1,9.788201265E0
6.247204417E0,-9.744136963E0,5.792953491E-2,7.924520874E-1,9.776478982E0
6.257191417E0,-9.740544434E0,4.670288086E-2,7.798782349E-1,9.771826701E0
6.267177417E0,-9.743388519E0,5.448669434E-2,7.773335266E-1,9.774499274E0
6.277164417E0,-9.736502838E0,5.837860107E-2,7.879614258E-1,9.768509548E0
6.287150417E0,-9.732760620E0,5.613327026E-2,7.964936829E-1,9.765458638E0
6.297137417E0,-9.724976807E0,6.077362061E-2,7.845185852E-1,9.756758516E0
6.307123417E0,-9.735305328E0,5.688171387E-2,7.792794800E-1,9.766610562E0
6.317109417E0,-9.744436340E0,3.802093506E-2,8.012837219E-1,9.777399490E0
6.327096417E0,-9.732610931E0,4.311035156E-2,8.158035278E-1,9.766837228E0
6.337082417E0,-9.737550659E0,3.143463135E-2,8.011340332E-1,9.770501354E0
6.347069417E0,-9.741741943E0,5.852828979E-2,8.071215820E-1,9.775295745E0
6.357055417E0,-9.727521515E0,4.206253052E-2,7.885601807E-1,9.759522080E0
6.367042417E0,-9.724078674E0,6.167175293E-2,7.717950439E-1,9.754854026E0
6.377028417E0,-9.726174316E0,6.227050781E-2,7.764353943E-1,9.757315019E0
6.387014417E0,-9.723030853E0,5.388793945E-2,7.780819702E-1,9.754262885E0
6.397001417E0,-9.744586029E0,6.406677246E-2,7.903564453E-1,9.776795218E0
6.406987417E0,-9.732161865E0,4.415817261E-2,7.951464844E-1,9.764690597E0
6.416974417E0,-9.733359375E0,5.179229736E-2,7.611671448E-1,9.763213743E0
6.426960417E0,-9.730066223E0,4.146377563E-2,7.824229431E-1,9.761562048E0
6.436947417E0,-9.730215912E0,5.029541016E-2,7.870632935E-1,9.762125790E0
6.446933417E0,-9.737850037E0,5.822891235E-2,7.861651611E-1,9.769706731E0
6.456919417E0,-9.742041321E0,5.523513794E-2,7.807763672E-1,9.773435003E0
6.466906417E0,-9.735005951E0,3.547622681E-2,7.926017761E-1,9.767282990E0
6.476892417E0,-9.736652527E0,5.194198608E-2,8.006849670E-1,9.769656945E0
6.486879417E0,-9.727970581E0,5.388793945E-2,7.912545776E-1,9.760245865E0
6.496865417E0,-9.728120270E0,6.526428223E-2,7.809260559E-1,9.759632622E0
6.506852417E0,-9.744436340E0,5.269042969E-2,7.988887024E-1,9.777271554E0
6.516838417E0,-9.728868713E0,5.673202515E-2,7.988887024E-1,9.761778943E0
6.526824417E0,-9.739047546E0,4.385879517E-2,7.991880798E-1,9.771881717E0
6.536811417E0,-9.725276184E0,5.224136353E-2,7.860154724E-1,9.757127976E0
6.546797417E0,-9.729317780E0,5.598358154E-2,7.942483521E-1,9.761843528E0
6.556784417E0,-9.743538208E0,4.475692749E-2,7.966433716E-1,9.776153674E0
6.566770417E0,-9.732910309E0,5.493576050E-2,7.976911926E-1,9.765698759E0
6.576757417E0,-9.734706573E0,5.777984619E-2,7.894583130E-1,9.766836489E0
6.586743417E0,-9.726473694E0,5.493576050E-2,7.777825928E-1,9.757676681E0
6.596729417E0,-9.739795990E0,5.882766724E-2,7.717950439E-1,9.770504297E0
6.606716417E0,-9.740993500E0,5.119354248E-2,7.845185852E-1,9.772668241E0
6.616702417E0,-9.732461243E0,5.987548828E-2,7.725434875E-1,9.763258183E0
6.626689417E0,-9.734706573E0,4.790039063E-2,7.915539551E-1,9.766952656E0
6.636675417E0,-9.732012177E0,4.610412598E-2,7.927514648E-1,9.764355661E0
6.646662417E0,-9.727222137E0,6.676116943E-2,8.041278076E-1,9.760631593E0
6.656648417E0,-9.745334473E0,5.777984619E-2,7.929011536E-1,9.777708051E0
6.666634417E0,-9.728719025E0,5.119354248E-2,7.987390137E-1,9.761586892E0
6.676621417E0,-9.723779297E0,3.772155762E-2,8.015830994E-1,9.756835665E0
6.686607417E0,-9.741891632E0,5.388793945E-2,8.050259399E-1,9.775245431E0
6.696594417E0,-9.754315796E0,5.239105225E-2,8.041278076E-1,9.787545300E0
6.706580417E0,-9.748178558E0,5.433700562E-2,7.822732544E-1,9.779667129E0
6.716567417E0,-9.740544434E0,5.194198608E-2,7.990383911E-1,9.773400953E0
6.726553417E0,-9.732161865E0,4.400848389E-2,7.988887024E-1,9.764995365E0
6.736539417E0,-9.728719025E0,4.834945679E-2,7.855664063E-1,9.760503374E0
6.746526417E0,-9.743837585E0,4.580474854E-2,7.848179626E-1,9.775500407E0
6.756512417E0,-9.735604706E0,4.026626587E-2,7.824229431E-1,9.767077660E0
6.766499417E0,-9.737400970E0,4.745132446E-2,7.914042664E-1,9.769623841E0
6.776485417E0,-9.740694122E0,4.146377563E-2,7.831713867E-1,9.772215647E0
6.786472417E0,-9.736802216E0,5.523513794E-2,7.881111145E-1,9.768801740E0
6.796458417E0,-9.752519531E0,5.822891235E-2,7.810757446E-1,9.783920847E0
6.806440417E0,-9.734706573E0,6.092330933E-2,7.972421265E-1,9.767487841E0
6.816411417E0,-9.745484161E0,5.792953491E-2,7.857160950E-1,9.777278106E0
6.826382417E0,-9.736053772E0,6.721023560E-2,7.867639160E-1,9.768022201E0
6.836353417E0,-9.736353149E0,5.269042969E-2,7.753875732E-1,9.767321783E0
6.846325417E0,-9.739047546E0,5.119354248E-2,7.878117371E-1,9.770993564E0
6.856296167E0,-9.737999725E0,6.301895142E-2,7.837701416E-1,9.769693223E0
6.866266167E0,-9.744885406E0,4.969665527E-2,7.809260559E-1,9.776252188E0
6.876237167E0,-9.745484161E0,5.628295898E-2,7.899073792E-1,9.777606199E0
6.886208167E0,-9.733509064E0,3.757186890E-2,7.946974182E-1,9.765969195E0
6.896178167E0,-9.731114044E0,3.562591553E-2,7.936495972E-1,9.763489613E0
6.906149167E0,-9.742490387E0,3.921844482E-2,7.897576904E-1,9.774526804E0
6.916120167E0,-9.722731476E0,4.610412598E-2,7.884104919E-1,9.754753920E0
6.926091167E0,-9.732311554E0,6.466552734E-2,7.812254333E-1,9.763830344E0
6.936062167E0,-9.733209686E0,4.565505981E-2,7.783813477E-1,9.764391056E0
6.946033167E0,-9.740095367E0,4.984634399E-2,7.896080017E-1,9.772175972E0
6.956004167E0,-9.732910309E0,5.089416504E-2,7.839198303E-1,9.764561618E0
6.965974167E0,-9.741292877E0,3.682342529E-2,7.945477295E-1,9.773712139E0
6.975945167E0,-9.729916534E0,4.640350342E-2,8.030799866E-1,9.763112542E0
6.985916167E0,-9.738598480E0,5.224136353E-2,7.893086243E-1,9.770672322E0
6.995887167E0,-9.732461243E0,4.385879517E-2,7.819738770E-1,9.763923831E0
7.005857167E0,-9.735904083E0,4.984634399E-2,7.753875732E-1,9.766859212E0
7.015828167E0,-9.732910309E0,5.628295898E-2,7.929011536E-1,9.765316333E0
7.025798167E0,-9.738299103E0,3.996688843E-2,7.903564453E-1,9.770400712E0
7.035770167E0,-9.727671204E0,5.523513794E-2,8.029302979E-1,9.760908515E0
7.045740167E0,-9.727222137E0,4.595443726E-2,8.012837219E-1,9.760277554E0
7.055712167E0,-9.724677429E0,3.053649902E-2,7.900570679E-1,9.756765537E0
7.065683167E0,-9.726174316E0,4.221221924E-2,7.821235657E-1,9.757661911E0
7.075654167E0,-9.741143188E0,3.951782227E-2,8.084687805E-1,9.774715037E0
7.085625167E0,-9.720935211E0,3.861968994E-2,7.810757446E-1,9.752340856E0
7.095595167E0,-9.733359375E0,5.209167480E-2,7.881111145E-1,9.765352907E0
7.105566167E0,-9.737850037E0,4.999603271E-2,7.809260559E-1,9.769240935E0
7.115536167E0,-9.725874939E0,4.939727783E-2,7.804769897E-1,9.757265383E0
7.125506167E0,-9.727521515E0,5.448669434E-2,7.842192078E-1,9.759233750E0
7.135476167E0,-9.725425873E0,4.505630493E-2,7.765850830E-1,9.756486195E0
7.145446167E0,-9.736353149E0,2.409988403E-2,7.822732544E-1,9.767758438E0
7.155417167E0,-9.736203461E0,3.293151855E-2,7.946974182E-1,9.768637894E0
7.165387167E0,-9.741442566E0,3.787124634E-2,7.978408813E-1,9.774133597E0
7.175357167E0,-9.738598480E0,5.508544922E-2,7.982899475E-1,9.771417584E0
7.185327167E0,-9.732311554E0,5.119354248E-2,7.780819702E-1,9.763499399E0
7.195297167E0,-9.735754395E0,5.658233643E-2,7.756869507E-1,9.766770471E0
7.205267167E0,-9.744436340E0,2.724334717E-2,7.842192078E-1,9.775979826E0
7.215237167E0,-9.745633850E0,2.350112915E-2,7.857160950E-1,9.777283939E0
7.225207167E0,-9.751022644E0,3.338058472E-2,7.890092468E-1,9.782949068E0
7.235177167E0,-9.738897858E0,4.999603271E-2,7.926017761E-1,9.771225545E0
7.245146167E0,-9.740394745E0,4.595443726E-2,7.866142273E-1,9.772213850E0
7.255116167E0,-9.740394745E0,4.430786133E-2,7.951464844E-1,9.772896751E0
7.265086167E0,-9.739047546E0,5.029541016E-2,7.872129822E-1,9.770940641E0
7.275055167E0,-9.738149414E0,4.311035156E-2,7.782316589E-1,9.769291532E0
7.285025167E0,-9.745933228E0,4.400848389E-2,7.885601807E-1,9.777882101E0
7.294995167E0,-9.739047546E0,6.616241455E-2,7.851173401E-1,9.770866585E0
7.304965167E0,-9.720935211E0,5.553451538E-2,7.866142273E-1,9.752867650E0
7.314936167E0,-9.731413422E0,5.583389282E-2,7.948471069E-1,9.763980056E0
7.324906167E0,-9.734556885E0,6.182144165E-2,7.836204529E-1,9.766241890E0
7.334876167E0,-9.750723267E0,4.894821167E-2,7.839198303E-1,9.782307011E0
7.344846167E0,-9.743837585E0,4.101470947E-2,7.914042664E-1,9.776010117E0
7.354816167E0,-9.730964355E0,4.490661621E-2,7.894583130E-1,9.763038888E0
7.364787167E0,-9.729018402E0,5.508544922E-2,7.758366394E-1,9.760059219E0
7.374756167E0,-9.732012177E0,4.086502075E-2,7.798782349E-1,9.763295602E0
7.384727167E0,-9.748777313E0,5.239105225E-2,7.942483521E-1,9.781218450E0
7.394697167E0,-9.729317780E0,3.682342529E-2,8.087681580E-1,9.762944553E0
7.404667167E0,-9.726473694E0,5.119354248E-2,8.045768738E-1,9.759828648E0
7.414637167E0,-9.740843811E0,5.433700562E-2,7.906558228E-1,9.773030609E0
7.424607167E0,-9.741143188E0,4.311035156E-2,7.842192078E-1,9.772754417E0
7.434576167E0,-9.733658752E0,3.861968994E-2,7.940986633E-1,9.766073770E0
7.444546167E0,-9.739346924E0,4.999603271E-2,7.771838379E-1,9.770434628E0
7.454516167E0,-9.721983032E0,4.131408691E-2,7.828720093E-1,9.753540358E0
7.464486167E0,-9.744885406E0,6.780899048E-2,7.800279236E-1,9.776289337E0
7.474456167E0,-9.739646301E0,5.373825073E-2,7.803273010E-1,9.771003458E0
7.484426167E0,-9.744436340E0,4.550537109E-2,8.032296753E-1,9.777591127E0
7.494396167E0,-9.736502838E0,3.727249146E-2,7.920030212E-1,9.768733057E0
7.504365167E0,-9.736502838E0,3.412902832E-2,7.932005310E-1,9.768818731E0
7.514335167E0,-9.745933228E0,4.924758911E-2,7.809260559E-1,9.777294376E0
7.524304167E0,-9.744136963E0,3.592529297E-2,7.830216980E-1,9.775613472E0
7.534275167E0,-9.730814667E0,5.254074097E-2,7.858657837E-1,9.762637945E0
7.544245167E0,-9.724976807E0,2.769241333E-2,8.023315430E-1,9.758057013E0
7.554214167E0,-9.734856262E0,3.412902832E-2,7.875123596E-1,9.766717307E0
7.564183167E0,-9.724827118E0,4.715194702E-2,7.771838379E-1,9.755946930E0
7.574153167E0,-9.718540192E0,4.116439819E-2,7.893086243E-1,9.750626958E0
7.584123167E0,-9.742340698E0,4.400848389E-2,7.860154724E-1,9.774096344E0
7.594092167E0,-9.739945679E0,4.011657715E-2,7.970924377E-1,9.772589601E0
7.604062167E0,-9.729916534E0,4.161346436E-2,7.990383911E-1,9.762759333E0
7.614030167E0,-9.727521515E0,5.179229736E-2,8.072712708E-1,9.761098512E0
7.624000167E0,-9.729317780E0,7.304809570E-2,7.861651611E-1,9.761301970E0
7.633970167E0,-9.747729492E0,5.463638306E-2,7.867639160E-1,9.779581425E0
7.643940167E0,-9.744586029E0,5.718109131E-2,7.912545776E-1,9.776825168E0
7.653910167E0,-9.735305328E0,5.179229736E-2,7.969427490E-1,9.768007475E0
7.663881167E0,-9.720785522E0,4.490661621E-2,7.803273010E-1,9.752158657E0
7.673852167E0,-9.735754395E0,3.802093506E-2,7.890092468E-1,9.767747684E0
7.683823167E0,-9.726324005E0,4.700225830E-2,7.936495972E-1,9.758763628E0
7.693793167E0,-9.734706573E0,4.251159668E-2,8.060737610E-1,9.768115182E0
7.703764167E0,-9.737700348E0,4.520599365E-2,7.988887024E-1,9.770520703E0
7.713734167E0,-9.730664978E0,5.328918457E-2,7.976911926E-1,9.763451843E0
7.723705167E0,-9.736353149E0,5.134323120E-2,8.008346558E-1,9.769367683E0
7.733676167E0,-9.749076691E0,7.185058594E-2,7.797285461E-1,9.780472148E0
7.743647167E0,-9.732461243E0,4.655319214E-2,7.914042664E-1,9.764696091E0
7.753618167E0,-9.740694122E0,5.463638306E-2,7.824229431E-1,9.772220463E0
7.763589167E0,-9.729317780E0,5.538482666E-2,7.951464844E-1,9.761913228E0
7.773560167E0,-9.724677429E0,3.847000122E-2,7.999365234E-1,9.757598551E0
7.783530167E0,-9.739646301E0,4.146377563E-2,8.087681580E-1,9.773256123E0
7.793501167E0,-9.750573578E0,3.263214111E-2,7.981402588E-1,9.783239639E0
7.803472167E0,-9.744136963E0,5.463638306E-2,7.973918152E-1,9.776861664E0
7.813444167E0,-9.725425873E0,6.227050781E-2,7.839198303E-1,9.757167433E0
7.823416167E0,-9.735604706E0,5.418731689E-2,7.932005310E-1,9.768014247E0
7.833388167E0,-9.744436340E0,4.625381470E-2,7.821235657E-1,9.775883401E0
7.843359167E0,-9.732461243E0,6.077362061E-2,7.827223206E-1,9.764074432E0
7.853331292E0,-9.735604706E0,4.475692749E-2,8.105644226E-1,9.769391836E0
7.863302292E0,-9.730515289E0,5.478607178E-2,7.994874573E-1,9.763457866E0
7.873274292E0,-9.735305328E0,4.355941772E-2,8.027806091E-1,9.768445320E0
7.883245292E0,-9.739346924E0,4.460723877E-2,7.827223206E-1,9.770850656E0
7.893216292E0,-9.739197235E0,4.939727783E-2,7.815248108E-1,9.770628634E0
7.903188292E0,-9.731862488E0,3.787124634E-2,7.905061340E-1,9.763989024E0
7.913159292E0,-9.746531982E0,5.628295898E-2,7.869136047E-1,9.778409200E0
7.923130292E0,-9.746831360E0,3.712280273E-2,7.852670288E-1,9.778483725E0
7.933102292E0,-9.727970581E0,5.598358154E-2,7.875123596E-1,9.759954995E0
7.943073292E0,-9.739945679E0,3.397933960E-2,7.897576904E-1,9.771970816E0
7.953044292E0,-9.740843811E0,5.403762817E-2,8.017327881E-1,9.773931332E0
7.963014292E0,-9.734706573E0,4.236190796E-2,7.833210754E-1,9.766263283E0
7.972985292E0,-9.743238831E0,4.819976807E-2,7.774832153E-1,9.774328943E0
7.982956292E0,-9.736652527E0,3.427871704E-2,7.806266785E-1,9.767955542E0
7.992927292E0,-9.733359375E0,5.822891235E-2,7.921527100E-1,9.765714579E0
8.002898292E0,-9.735155640E0,4.176315308E-2,7.846682739E-1,9.766816461E0
8.012868292E0,-9.726024628E0,5.523513794E-2,7.816744995E-1,9.757541750E0
8.022839292E0,-9.737999725E0,4.026626587E-2,7.848179626E-1,9.769657070E0
8.032810292E0,-9.724527740E0,3.906875610E-2,7.885601807E-1,9.756525678E0
8.042781292E0,-9.733808441E0,4.879852295E-2,7.857160950E-1,9.765590502E0
8.052751292E0,-9.727521515E0,4.041595459E-2,7.990383911E-1,9.760367341E0
8.062722292E0,-9.741292877E0,5.044509888E-2,7.960446167E-1,9.773894754E0
8.072694292E0,-9.740245056E0,4.071533203E-2,7.887098694E-1,9.772210331E0
8.082666292E0,-9.733059998E0,4.640350342E-2,7.761360168E-1,9.764066638E0
8.092637292E0,-9.736951904E0,4.595443726E-2,7.870632935E-1,9.768818395E0
8.102608292E0,-9.744586029E0,5.239105225E-2,7.677534485E-1,9.774924402E0
8.112579292E0,-9.736053772E0,5.987548828E-2,7.795788574E-1,9.767398391E0
8.122550292E0,-9.734107819E0,6.526428223E-2,7.903564453E-1,9.766359494E0
8.132520292E0,-9.745184784E0,3.293151855E-2,7.934999084E-1,9.777492166E0
8.142491292E0,-9.736802216E0,5.807922363E-2,7.879614258E-1,9.768806160E0
8.152461292E0,-9.732311554E0,5.418731689E-2,7.911048889E-1,9.764562018E0
8.162432292E0,-9.747430115E0,3.817062378E-2,7.933502197E-1,9.779736981E0
8.172403292E0,-9.734407196E0,5.733078003E-2,7.891589355E-1,9.766511255E0
8.182374292E0,-9.728719025E0,4.206253052E-2,7.942483521E-1,9.761176853E0
8.192345292E0,-9.742640076E0,4.206253052E-2,7.839198303E-1,9.774217882E0
8.202315292E0,-9.730365601E0,5.089416504E-2,7.909552002E-1,9.762592641E0
8.212286292E0,-9.735005951E0,5.059478760E-2,8.193960571E-1,9.769560410E0
8.222257292E0,-9.744885406E0,3.996688843E-2,8.002359009E-1,9.777768991E0
8.232228292E0,-9.736053772E0,3.966751099E-2,8.023315430E-1,9.769137755E0
8.242199292E0,-9.739646301E0,3.203338623E-2,7.970924377E-1,9.772261384E0
8.252170292E0,-9.736951904E0,5.643264771E-2,7.768844604E-1,9.768058481E0
8.262141292E0,-9.743388519E0,5.209167480E-2,7.899073792E-1,9.775494210E0
8.272112292E0,-9.738448792E0,6.526428223E-2,7.819738770E-1,9.770011639E0
8.282083292E0,-9.739197235E0,5.164260864E-2,7.801776123E-1,9.770532578E0
8.292055292E0,-9.747879181E0,5.433700562E-2,7.878117371E-1,9.779813310E0
8.302025292E0,-9.744735718E0,4.565505981E-2,7.831713867E-1,9.776262886E0
8.311996292E0,-9.724078674E0,4.460723877E-2,7.969427490E-1,9.756782954E0
8.321967292E0,-9.741292877E0,4.071533203E-2,7.999365234E-1,9.774167131E0
8.331939292E0,-9.736203461E0,3.412902832E-2,7.833210754E-1,9.767723098E0
8.341910292E0,-9.740843811E0,5.673202515E-2,7.798782349E-1,9.772178198E0
8.351881292E0,-9.735155640E0,5.673202515E-2,7.825726318E-1,9.766723799E0
8.361853292E0,-9.727521515E0,4.849914551E-2,7.863148499E-1,9.759370781E0
8.371825292E0,-9.731263733E0,4.775070190E-2,7.842192078E-1,9.762928543E0
8.381797292E0,-9.729916534E0,3.233276367E-2,7.984396362E-1,9.762675198E0
8.391768292E0,-9.737251282E0,5.598358154E-2,7.957452393E-1,9.769872423E0
8.401739292E0,-9.749376068E0,3.218307495E-2,7.908055115E-1,9.781448912E0
8.411710292E0,-9.727671204E0,3.173400879E-2,7.807763672E-1,9.759006396E0
8.421681292E0,-9.742191010E0,5.733078003E-2,7.867639160E-1,9.774076424E0
8.431652292E0,-9.742041321E0,5.044509888E-2,7.858657837E-1,9.773817004E0
8.441623292E0,-9.730964355E0,4.116439819E-2,7.885601807E-1,9.762949808E0
8.451593292E0,-9.740245056E0,4.640350342E-2,7.999365234E-1,9.773148187E0
8.461564292E0,-9.729168091E0,4.700225830E-2,7.819738770E-1,9.760655925E0
8.471535292E0,-9.741442566E0,6.092330933E-2,7.777825928E-1,9.772633252E0
8.481506292E0,-9.733209686E0,4.894821167E-2,7.970924377E-1,9.765916397E0
8.491477292E0,-9.734556885E0,4.760101318E-2,7.908055115E-1,9.766741368E0
8.501448292E0,-9.741891632E0,6.466552734E-2,7.798782349E-1,9.773271932E0
8.511420292E0,-9.727820892E0,5.972579956E-2,7.899073792E-1,9.760021524E0
8.521391292E0,-9.733059998E0,5.703140259E-2,7.861651611E-1,9.764925251E0
8.531362292E0,-9.743837585E0,3.891906738E-2,7.872129822E-1,9.775663142E0
8.541333292E0,-9.736502838E0,4.266128540E-2,7.967930603E-1,9.769144624E0
8.551305292E0,-9.734856262E0,3.951782227E-2,7.926017761E-1,9.767149312E0
8.561276292E0,-9.737400970E0,3.367996216E-2,7.976911926E-1,9.770077955E0
8.571246292E0,-9.721384277E0,4.520599365E-2,7.905061340E-1,9.753576564E0
8.581218292E0,-9.721533966E0,4.834945679E-2,7.914042664E-1,9.753813666E0
8.591189292E0,-9.723180542E0,5.508544922E-2,7.908055115E-1,9.755441949E0
8.601160292E0,-9.728868713E0,5.029541016E-2,7.801776123E-1,9.760230181E0
8.611132292E0,-9.740095367E0,4.775070190E-2,7.758366394E-1,9.771062398E0
8.621103292E0,-9.731563110E0,5.089416504E-2,7.831713867E-1,9.763158721E0
8.631074292E0,-9.736053772E0,6.107299805E-2,7.900570679E-1,9.768247700E0
8.641045292E0,-9.737700348E0,5.493576050E-2,7.888595581E-1,9.769755647E0
8.651016292E0,-9.734257507E0,4.056564331E-2,8.050259399E-1,9.767572961E0
8.660987292E0,-9.728120270E0,6.152206421E-2,7.888595581E-1,9.760246326E0
8.670957292E0,-9.735305328E0,5.134323120E-2,7.780819702E-1,9.766484399E0
8.680928292E0,-9.738897858E0,5.373825073E-2,7.863148499E-1,9.770737450E0
8.690900292E0,-9.745783539E0,4.071533203E-2,7.976911926E-1,9.778459273E0
8.700871292E0,-9.738448792E0,4.340972900E-2,7.783813477E-1,9.769603205E0
8.710842292E0,-9.738598480E0,6.152206421E-2,7.881111145E-1,9.770629686E0
8.720813292E0,-9.741741943E0,6.361770630E-2,7.786807251E-1,9.773020361E0
8.730784292E0,-9.732610931E0,5.418731689E-2,7.958949280E-1,9.765249641E0
8.740755292E0,-9.725425873E0,4.909790039E-2,7.833210754E-1,9.757044169E0
8.750726292E0,-9.716594238E0,4.954696655E-2,7.867639160E-1,9.748520706E0
8.760697292E0,-9.729018402E0,4.939727783E-2,7.873626709E-1,9.760951754E0
8.770668292E0,-9.736652527E0,5.673202515E-2,7.788304138E-1,9.767916757E0
8.780639292E0,-9.736802216E0,4.805007935E-2,7.958949280E-1,9.769394809E0
8.790610292E0,-9.736053772E0,4.894821167E-2,7.884104919E-1,9.768046380E0
8.800581292E0,-9.723030853E0,4.819976807E-2,7.911048889E-1,9.755280577E0
8.810552292E0,-9.733958130E0,5.044509888E-2,7.987390137E-1,9.766804472E0
8.820522292E0,-9.745334473E0,4.580474854E-2,7.899073792E-1,9.777402300E0
8.830492292E0,-9.737999725E0,5.328918457E-2,7.857160950E-1,9.769791613E0
8.840463292E0,-9.726473694E0,3.772155762E-2,8.009843445E-1,9.759471776E0
8.850433292E0,-9.728719025E0,2.859054565E-2,7.979905701E-1,9.761433308E0
8.860405042E0,-9.727970581E0,4.790039063E-2,8.005352783E-1,9.760971407E0
8.870376042E0,-9.741741943E0,5.718109131E-2,7.851173401E-1,9.773495537E0
8.880347042E0,-9.746531982E0,6.646179199E-2,7.994874573E-1,9.779492985E0
8.890318042E0,-9.735604706E0,5.448669434E-2,7.879614258E-1,9.767591873E0
8.900289042E0,-9.725725250E0,4.969665527E-2,7.964936829E-1,9.758411940E0
8.910260042E0,-9.727521515E0,3.951782227E-2,7.851173401E-1,9.759233869E0
8.920231042E0,-9.735155640E0,4.251159668E-2,8.032296753E-1,9.768328438E0
8.930202042E0,-9.733209686E0,2.948867798E-2,7.991880798E-1,9.766009521E0
8.940173042E0,-9.742640076E0,3.727249146E-2,7.768844604E-1,9.773636700E0
8.950144042E0,-9.739346924E0,5.433700562E-2,7.963439941E-1,9.772000551E0
8.960116042E0,-9.724827118E0,4.700225830E-2,7.854167175E-1,9.756605511E0
8.970087042E0,-9.729916534E0,4.909790039E-2,7.855664063E-1,9.761700720E0
8.980058042E0,-9.715396729E0,5.209167480E-2,7.972421265E-1,9.748191737E0
8.990028042E0,-9.736502838E0,4.984634399E-2,7.827223206E-1,9.768041073E0
8.999999042E0,-9.731712799E0,4.176315308E-2,7.812254333E-1,9.763108693E0
9.009969042E0,-9.728269958E0,4.116439819E-2,7.924520874E-1,9.760579450E0
9.019940042E0,-9.733808441E0,4.730163574E-2,7.921527100E-1,9.766103119E0
9.029911042E0,-9.728419647E0,3.427871704E-2,7.869136047E-1,9.760253935E0
9.039882042E0,-9.728419647E0,5.852828979E-2,7.825726318E-1,9.760020201E0
9.049853042E0,-9.723030853E0,7.110214233E-2,7.908055115E-1,9.755396345E0
9.059824042E0,-9.741442566E0,5.149291992E-2,7.894583130E-1,9.773515192E0
9.069794042E0,-9.734706573E0,4.460723877E-2,7.979905701E-1,9.767460818E0
9.079765042E0,-9.727222137E0,4.056564331E-2,7.860154724E-1,9.759012061E0
9.089735042E0,-9.730365601E0,4.460723877E-2,7.945477295E-1,9.762853611E0
9.099705042E0,-9.736203461E0,4.281097412E-2,7.964936829E-1,9.768822488E0
9.109675042E0,-9.745933228E0,5.792953491E-2,7.958949280E-1,9.778548923E0
9.119645042E0,-9.753118286E0,5.239105225E-2,7.887098694E-1,9.785097055E0
9.129615042E0,-9.734407196E0,5.673202515E-2,7.782316589E-1,9.765630881E0
9.139584042E0,-9.722581787E0,4.969665527E-2,7.846682739E-1,9.754320615E0
9.149554042E0,-9.735604706E0,5.418731689E-2,7.858657837E-1,9.767421373E0
9.159524042E0,-9.743388519E0,4.864883423E-2,8.009843445E-1,9.776377778E0
9.169495042E0,-9.734706573E0,2.948867798E-2,8.000862122E-1,9.767574909E0
9.179465042E0,-9.739795990E0,4.849914551E-2,8.039781189E-1,9.773042459E0
9.189436042E0,-9.743837585E0,6.152206421E-2,7.860154724E-1,9.775682901E0
9.199406042E0,-9.736053772E0,3.353027344E-2,7.878117371E-1,9.767932978E0
9.209377042E0,-9.744735718E0,6.152206421E-2,7.768844604E-1,9.775848231E0
9.219347042E0,-9.739197235E0,6.137237549E-2,7.803273010E-1,9.770600803E0
9.229318042E0,-9.745484161E0,3.083587646E-2,7.804769897E-1,9.776735484E0
9.239289042E0,-9.743538208E0,5.029541016E-2,8.000862122E-1,9.776461752E0
9.249259042E0,-9.725425873E0,4.819976807E-2,8.014334106E-1,9.758510498E0
9.259230042E0,-9.740394745E0,6.346801758E-2,7.837701416E-1,9.772083381E0
9.269200042E0,-9.723629608E0,6.870712280E-2,7.997868347E-1,9.756708072E0
9.279171042E0,-9.731263733E0,5.373825073E-2,7.976911926E-1,9.764051049E0
9.289141042E0,-9.743388519E0,7.140151978E-2,7.846682739E-1,9.775194234E0
9.299112042E0,-9.726024628E0,6.286926270E-2,7.804769897E-1,9.757492092E0
9.309082042E0,-9.738598480E0,3.757186890E-2,8.038284302E-1,9.771788585E0
9.319052042E0,-9.732760620E0,5.598358154E-2,8.161029053E-1,9.767076707E0
9.329021042E0,-9.742041321E0,4.340972900E-2,8.047265625E-1,9.775317813E0
9.338991042E0,-9.724677429E0,3.263214111E-2,8.110134888E-1,9.758491627E0
9.348962042E0,-9.727970581E0,3.832031250E-2,7.936495972E-1,9.760366784E0
9.358932042E0,-9.729317780E0,5.358856201E-2,7.842192078E-1,9.761019207E0
9.368902042E0,-9.742939453E0,7.484436035E-2,7.908055115E-1,9.775266964E0
9.378872042E0,-9.730066223E0,7.125183105E-2,7.746391296E-1,9.761113221E0
9.388842042E0,-9.740245056E0,7.080276489E-2,7.662565613E-1,9.770595473E0
9.398812042E0,-9.728868713E0,5.134323120E-2,7.809260559E-1,9.760295491E0
9.408782042E0,-9.739197235E0,2.694396973E-2,8.143066406E-1,9.773217693E0
9.418752042E0,-9.731563110E0,3.308120728E-2,8.360115051E-1,9.767462832E0
9.428722042E0,-9.741442566E0,3.637435913E-2,8.295748901E-1,9.776769449E0
9.438693042E0,-9.725425873E0,4.146377563E-2,7.852670288E-1,9.757165160E0
9.448663042E0,-9.726473694E0,6.122268677E-2,7.723937988E-1,9.757286042E0
9.458633042E0,-9.734706573E0,6.167175293E-2,7.726931763E-1,9.765519455E0
9.468603042E0,-9.752519531E0,7.170089722E-2,7.762857056E-1,9.783629067E0
9.478573042E0,-9.735455017E0,6.496490479E-2,7.658074951E-1,9.765744516E0
9.488543042E0,-9.729766846E0,3.876937866E-2,7.758366394E-1,9.760726839E0
9.498513042E0,-9.730066223E0,6.346801758E-2,7.885601807E-1,9.762174146E0
9.508483042E0,-9.726174316E0,4.086502075E-2,7.930508423E-1,9.758538129E0
9.518454042E0,-9.732012177E0,2.739303589E-2,8.158035278E-1,9.766183839E0
9.528424042E0,-9.728868713E0,4.116439819E-2,8.199948120E-1,9.763450847E0
9.538394042E0,-9.737251282E0,4.011657715E-2,8.021818542E-1,9.770320752E0
9.548364042E0,-9.727072449E0,5.418731689E-2,7.851173401E-1,9.758856692E0
9.558333042E0,-9.732610931E0,7.080276489E-2,7.872129822E-1,9.764652214E0
9.568303042E0,-9.732012177E0,5.269042969E-2,7.764353943E-1,9.763077855E0
9.578274042E0,-9.742191010E0,3.817062378E-2,7.803273010E-1,9.773466804E0
9.588244042E0,-9.727222137E0,5.448669434E-2,7.993377686E-1,9.760161893E0
9.598214042E0,-9.732910309E0,3.517684937E-2,8.041278076E-1,9.766135470E0
9.608184042E0,-9.736053772E0,3.936813354E-2,8.071215820E-1,9.769531112E0
9.618153042E0,-9.728719025E0,6.915618896E-2,7.984396362E-1,9.761673130E0
9.628123042E0,-9.738897858E0,4.849914551E-2,7.804769897E-1,9.770241961E0
9.638093042E0,-9.740843811E0,5.463638306E-2,7.872129822E-1,9.772754349E0
9.648063042E0,-9.729766846E0,5.748046875E-2,7.821235657E-1,9.761320820E0
9.658033042E0,-9.744436340E0,5.673202515E-2,7.891589355E-1,9.776503973E0
9.668003042E0,-9.744735718E0,5.328918457E-2,7.960446167E-1,9.777341202E0
9.677973042E0,-9.732161865E0,4.355941772E-2,8.120613098E-1,9.766079846E0
9.687943042E0,-9.729617157E0,4.206253052E-2,8.126600647E-1,9.763587233E0
9.697912042E0,-9.736502838E0,3.936813354E-2,7.809260559E-1,9.767849450E0
9.707882042E0,-9.729317780E0,3.817062378E-2,7.819738770E-1,9.760766599E0
9.717852042E0,-9.728269958E0,5.074447632E-2,7.762857056E-1,9.759325329E0
9.727822042E0,-9.729168091E0,5.553451538E-2,7.761360168E-1,9.760234779E0
9.737792042E0,-9.739496613E0,6.825805664E-2,7.912545776E-1,9.771823639E0
9.747762042E0,-9.724078674E0,5.538482666E-2,8.003855896E-1,9.757119997E0
9.757732042E0,-9.727521515E0,4.026626587E-2,8.063731384E-1,9.760969923E0
9.767702042E0,-9.730215912E0,4.176315308E-2,7.945477295E-1,9.762691839E0
9.777672042E0,-9.746681671E0,5.343887329E-2,7.933502197E-1,9.779062526E0
9.787642042E0,-9.728269958E0,4.176315308E-2,7.801776123E-1,9.759593109E0
9.797612042E0,-9.730365601E0,5.673202515E-2,7.834707642E-1,9.762021291E0
9.807582042E0,-9.732910309E0,6.466552734E-2,7.791297913E-1,9.764259723E0
9.817553042E0,-9.736353149E0,6.167175293E-2,7.958949280E-1,9.769023738E0
9.827523042E0,-9.742041321E0,5.209167480E-2,8.033793640E-1,9.775249411E0
9.837494042E0,-9.724976807E0,4.505630493E-2,7.932005310E-1,9.757375213E0
9.847464042E0,-9.730515289E0,2.230361938E-2,8.006849670E-1,9.763427762E0
9.857433708E0,-9.745933228E0,4.176315308E-2,7.957452393E-1,9.778454332E0
9.867403708E0,-9.744136963E0,4.595443726E-2,7.939489746E-1,9.776536807E0
9.877373708E0,-9.741741943E0,4.580474854E-2,7.905061340E-1,9.773869966E0
9.887344708E0,-9.738897858E0,4.894821167E-2,7.696994019E-1,9.769389161E0
9.897314708E0,-9.731263733E0,6.586303711E-2,7.831713867E-1,9.762949821E0
9.907285708E0,-9.729317780E0,5.014572144E-2,8.017327881E-1,9.762423598E0
9.917255708E0,-9.748927002E0,4.610412598E-2,8.024812317E-1,9.782007944E0
9.927225708E0,-9.724378052E0,5.224136353E-2,7.945477295E-1,9.756923888E0
9.937195708E0,-9.724677429E0,3.906875610E-2,7.981402588E-1,9.757453835E0
9.947166708E0,-9.736652527E0,3.966751099E-2,7.966433716E-1,9.769268990E0
9.957137708E0,-9.745783539E0,4.595443726E-2,7.834707642E-1,9.777332716E0
9.967107708E0,-9.725575562E0,4.595443726E-2,7.897576904E-1,9.757696912E0
9.977078708E0,-9.742490387E0,5.164260864E-2,7.933502197E-1,9.774875471E0
9.987049708E0,-9.728419647E0,6.646179199E-2,7.970924377E-1,9.761245943E0
9.997020708E0,-9.729317780E0,4.939727783E-2,7.978408813E-1,9.762100933E0
1.000699071E1,-9.732610931E0,4.415817261E-2,7.710466003E-1,9.763205332E0
1.001696171E1,-9.727222137E0,5.703140259E-2,7.867639160E-1,9.759154705E0
1.002693271E1,-9.758507080E0,4.340972900E-2,8.044271851E-1,9.791703015E0
1.003690371E1,-9.749974823E0,4.146377563E-2,7.918533325E-1,9.782165404E0
1.004687471E1,-9.732012177E0,4.805007935E-2,7.897576904E-1,9.764122440E0
1.005684571E1,-9.743388519E0,6.107299805E-2,7.759863281E-1,9.774431161E0
1.006681671E1,-9.734107819E0,5.209167480E-2,7.873626709E-1,9.766038529E0
1.007678771E1,-9.739047546E0,4.745132446E-2,7.704478455E-1,9.769589992E0
1.008675871E1,-9.744885406E0,5.149291992E-2,7.810757446E-1,9.776273443E0
1.009672971E1,-9.733059998E0,4.400848389E-2,7.812254333E-1,9.764461421E0
1.010670071E1,-9.741143188E0,4.580474854E-2,7.818241882E-1,9.772574776E0
1.011667171E1,-9.731263733E0,4.131408691E-2,7.864645386E-1,9.763079799E0
1.012664271E1,-9.725874939E0,5.688171387E-2,7.993377686E-1,9.758832908E0
1.013661371E1,-9.748178558E0,5.059478760E-2,8.000862122E-1,9.781088027E0
1.014658471E1,-9.724527740E0,5.269042969E-2,8.098159790E-1,9.758330696E0
1.015655571E1,-9.741292877E0,3.502716064E-2,8.045768738E-1,9.774525961E0
1.016652571E1,-9.732311554E0,3.353027344E-2,7.918533325E-1,9.764529900E0
1.017649671E1,-9.734856262E0,4.266128540E-2,7.905061340E-1,9.766992699E0
1.018646771E1,-9.733059998E0,6.122268677E-2,7.845185852E-1,9.764818203E0
1.019643971E1,-9.752669220E0,4.430786133E-2,7.822732544E-1,9.784092781E0
1.020641171E1,-9.735904083E0,4.056564331E-2,7.791297913E-1,9.767114063E0
1.021638371E1,-9.736353149E0,5.478607178E-2,7.893086243E-1,9.768448304E0
1.022635571E1,-9.736802216E0,4.894821167E-2,7.930508423E-1,9.769167976E0
1.023632671E1,-9.754615173E0,4.146377563E-2,8.011340332E-1,9.787545768E0
1.024629871E1,-9.744136963E0,3.817062378E-2,7.976911926E-1,9.776807934E0
1.025627071E1,-9.731114044E0,4.655319214E-2,7.858657837E-1,9.762905959E0
1.026624171E1,-9.726922760E0,3.472778320E-2,8.024812317E-1,9.760031174E0
1.027621271E1,-9.721833344E0,3.936813354E-2,7.924520874E-1,9.754156741E0
1.028618471E1,-9.744286652E0,5.763015747E-2,7.665559387E-1,9.774561453E0
1.029615471E1,-9.732610931E0,4.969665527E-2,7.807763672E-1,9.764005174E0
1.030612571E1,-9.736802216E0,4.730163574E-2,7.749385071E-1,9.767706206E0
1.031609671E1,-9.729467468E0,4.236190796E-2,7.701484680E-1,9.759992849E0
1.032606671E1,-9.722731476E0,4.939727783E-2,7.903564453E-1,9.754927511E0
1.033603771E1,-9.749974823E0,6.032455444E-2,8.008346558E-1,9.782994646E0
1.034600871E1,-9.739795990E0,5.748046875E-2,7.939489746E-1,9.772271226E0
1.035597971E1,-9.736802216E0,4.790039063E-2,7.945477295E-1,9.769284412E0
1.036594971E1,-9.745035095E0,3.936813354E-2,7.940986633E-1,9.777415382E0
1.037592071E1,-9.729916534E0,5.284011841E-2,7.762857056E-1,9.760977786E0
1.038589071E1,-9.733509064E0,4.894821167E-2,7.936495972E-1,9.765934379E0
1.039586271E1,-9.742191010E0,5.388793945E-2,7.914042664E-1,9.774431456E0
1.040583371E1,-9.728419647E0,5.059478760E-2,7.861651611E-1,9.760264562E0
1.041580471E1,-9.732161865E0,4.490661621E-2,7.800279236E-1,9.763474522E0
1.042577571E1,-9.729916534E0,3.981719971E-2,7.828720093E-1,9.761441992E0
1.043574671E1,-9.725126495E0,4.281097412E-2,7.914042664E-1,9.757368438E0
1.044571771E1,-9.727072449E0,3.742218018E-2,7.966433716E-1,9.759712061E0
1.045568771E1,-9.726922760E0,4.670288086E-2,7.890092468E-1,9.758982689E0
1.046565871E1,-9.742490387E0,5.867797852E-2,7.809260559E-1,9.773914648E0
1.047562971E1,-9.733509064E0,5.703140259E-2,7.665559387E-1,9.763813767E0
1.048559971E1,-9.747430115E0,6.541397095E-2,7.960446167E-1,9.780100197E0
1.049556971E1,-9.737101593E0,5.583389282E-2,8.093669128E-1,9.770841297E0
1.050553971E1,-9.727371826E0,4.879852295E-2,8.116122437E-1,9.761293888E0
1.051550971E1,-9.729168091E0,3.353027344E-2,7.918533325E-1,9.761396812E0
1.052547971E1,-9.743837585E0,3.532653809E-2,8.095166016E-1,9.777470838E0
1.053545071E1,-9.743238831E0,4.251159668E-2,7.930508423E-1,9.775553170E0
1.054542071E1,-9.734107819E0,5.718109131E-2,7.819738770E-1,9.765634022E0
1.055539071E1,-9.737101593E0,5.209167480E-2,7.722441101E-1,9.767815618E0
1.056536071E1,-9.728569336E0,5.044509888E-2,7.854167175E-1,9.760352732E0
1.057533071E1,-9.732012177E0,4.909790039E-2,8.012837219E-1,9.765066677E0
1.058530171E1,-9.723928986E0,3.951782227E-2,8.008346558E-1,9.756930497E0
1.059527171E1,-9.748178558E0,4.056564331E-2,7.994874573E-1,9.780992331E0
1.060524371E1,-9.738748169E0,5.298980713E-2,8.087681580E-1,9.772416781E0
1.061521471E1,-9.731712799E0,4.670288086E-2,7.891589355E-1,9.763769097E0
1.062518571E1,-9.737101593E0,4.670288086E-2,7.940986633E-1,9.769540485E0
1.063515671E1,-9.737550659E0,6.002517700E-2,7.866142273E-1,9.769455348E0
1.064512671E1,-9.741292877E0,5.463638306E-2,7.866142273E-1,9.773153738E0
1.065509771E1,-9.732161865E0,5.463638306E-2,7.731422424E-1,9.762976423E0
1.066506871E1,-9.730664978E0,4.206253052E-2,7.830216980E-1,9.762209440E0
1.067503871E1,-9.726324005E0,6.721023560E-2,7.926017761E-1,9.758796721E0
1.068500971E1,-9.744286652E0,5.134323120E-2,8.038284302E-1,9.777520065E0
1.069497971E1,-9.736951904E0,4.206253052E-2,7.932005310E-1,9.769297248E0
1.070495071E1,-9.730215912E0,4.086502075E-2,8.024812317E-1,9.763336918E0
1.071492071E1,-9.738299103E0,5.269042969E-2,7.930508423E-1,9.770679369E0
1.072489071E1,-9.739197235E0,5.777984619E-2,7.902067566E-1,9.771372883E0
1.073486171E1,-9.732461243E0,5.059478760E-2,7.722441101E-1,9.763181994E0
1.074483171E1,-9.742191010E0,5.972579956E-2,7.816744995E-1,9.773682410E0
1.075480171E1,-9.735604706E0,6.002517700E-2,7.854167175E-1,9.767419384E0
1.076477171E1,-9.732760620E0,3.727249146E-2,7.921527100E-1,9.765015332E0
1.077474171E1,-9.729617157E0,6.316864014E-2,7.978408813E-1,9.762478700E0
1.078471171E1,-9.736053772E0,4.191284180E-2,7.869136047E-1,9.767892954E0
1.079468071E1,-9.749226379E0,3.517684937E-2,7.999365234E-1,9.782052487E0
1.080465071E1,-9.737999725E0,4.056564331E-2,7.927514648E-1,9.770298824E0
1.081461971E1,-9.732760620E0,3.622467041E-2,8.137078857E-1,9.766783608E0
1.082458971E1,-9.733059998E0,3.517684937E-2,7.923023987E-1,9.765318091E0
1.083456071E1,-9.746382294E0,5.224136353E-2,7.794291687E-1,9.777638099E0
1.084452971E1,-9.737850037E0,5.852828979E-2,8.072712708E-1,9.771429568E0
1.085450071E1,-9.741741943E0,5.972579956E-2,8.060737610E-1,9.775216528E0
1.086447033E1,-9.740095367E0,3.847000122E-2,7.855664063E-1,9.771798826E0
1.087444133E1,-9.734257507E0,5.164260864E-2,7.982899475E-1,9.767072387E0
1.088441133E1,-9.726024628E0,5.703140259E-2,7.951464844E-1,9.758640560E0
1.089438233E1,-9.727820892E0,4.580474854E-2,7.834707642E-1,9.759427433E0
1.090435233E1,-9.723030853E0,3.742218018E-2,7.929011536E-1,9.755379113E0
1.091432333E1,-9.724527740E0,4.610412598E-2,7.900570679E-1,9.756677484E0
1.092429333E1,-9.741891632E0,4.131408691E-2,7.851173401E-1,9.773564788E0
1.093426333E1,-9.741891632E0,5.209167480E-2,7.873626709E-1,9.773796913E0
1.094423333E1,-9.726024628E0,6.646179199E-2,7.849676514E-1,9.757876124E0
1.095420333E1,-9.742490387E0,5.194198608E-2,7.915539551E-1,9.774731432E0
1.096417433E1,-9.724378052E0,4.311035156E-2,7.852670288E-1,9.756127885E0
1.097414433E1,-9.739795990E0,3.772155762E-2,7.845185852E-1,9.771413319E0
1.098411533E1,-9.729018402E0,5.239105225E-2,7.783813477E-1,9.760246995E0
1.099408533E1,-9.738897858E0,4.969665527E-2,7.800279236E-1,9.770212116E0
1.100405633E1,-9.731563110E0,5.029541016E-2,7.885601807E-1,9.763589369E0
1.101402633E1,-9.743089142E0,5.882766724E-2,8.035290527E-1,9.776344187E0
1.102399633E1,-9.734407196E0,3.263214111E-2,8.114625549E-1,9.768225007E0
1.103396633E1,-9.725276184E0,4.041595459E-2,7.963439941E-1,9.757909308E0
1.104393633E1,-9.739945679E0,6.391708374E-2,8.027806091E-1,9.773181873E0
1.105390633E1,-9.730365601E0,4.490661621E-2,7.782316589E-1,9.761540649E0
1.106387833E1,-9.746681671E0,5.194198608E-2,7.767347717E-1,9.777720515E0
1.107384933E1,-9.737999725E0,4.400848389E-2,7.923023987E-1,9.770277298E0
1.108382033E1,-9.733209686E0,5.643264771E-2,8.039781189E-1,9.766521195E0
1.109379233E1,-9.734107819E0,4.954696655E-2,7.911048889E-1,9.766327707E0
1.110376433E1,-9.735455017E0,4.490661621E-2,8.134085083E-1,9.769479740E0
1.111373433E1,-9.728569336E0,4.176315308E-2,7.934999084E-1,9.760965505E0
1.112370533E1,-9.730814667E0,5.164260864E-2,7.864645386E-1,9.762681369E0
1.113367733E1,-9.742191010E0,3.517684937E-2,7.867639160E-1,9.773971585E0
1.114364733E1,-9.749226379E0,6.167175293E-2,7.963439941E-1,9.781890521E0
1.115361833E1,-9.741442566E0,5.343887329E-2,8.068222046E-1,9.774943532E0
1.116358833E1,-9.748328247E0,4.490661621E-2,8.077203369E-1,9.781836860E0
1.117355833E1,-9.743388519E0,4.909790039E-2,8.054750061E-1,9.776748970E0
1.118352833E1,-9.731263733E0,5.942642212E-2,7.924520874E-1,9.763657391E0
1.119349933E1,-9.723030853E0,6.122268677E-2,7.689509583E-1,9.753582048E0
1.120347033E1,-9.730964355E0,4.879852295E-2,7.788304138E-1,9.762203921E0
1.121344033E1,-9.731263733E0,5.733078003E-2,7.803273010E-1,9.762668250E0
1.122341133E1,-9.724976807E0,4.954696655E-2,7.926017761E-1,9.757348327E0
1.123338133E1,-9.727671204E0,5.059478760E-2,7.801776123E-1,9.759038067E0
1.124335133E1,-9.734556885E0,4.206253052E-2,7.991880798E-1,9.767398251E0
1.125332033E1,-9.738748169E0,5.313949585E-2,8.060737610E-1,9.772194974E0
1.126329133E1,-9.735455017E0,5.239105225E-2,7.894583130E-1,9.767552080E0
1.127326133E1,-9.730664978E0,5.224136353E-2,7.747888184E-1,9.761601702E0
1.128323133E1,-9.739496613E0,4.954696655E-2,7.786807251E-1,9.770700734E0
1.129320133E1,-9.731563110E0,4.715194702E-2,7.902067566E-1,9.763706806E0
1.130317233E1,-9.734257507E0,4.520599365E-2,7.979905701E-1,9.767016011E0
1.131314333E1,-9.736203461E0,3.996688843E-2,8.277786255E-1,9.771410985E0
1.132311433E1,-9.736652527E0,2.005828857E-2,8.164022827E-1,9.770840161E0
1.133308433E1,-9.718240814E0,3.068618774E-2,7.860154724E-1,9.750023922E0
1.134305533E1,-9.729916534E0,4.520599365E-2,7.723937988E-1,9.760630693E0
1.135302633E1,-9.737550659E0,5.074447632E-2,7.679031372E-1,9.767913957E0
1.136299733E1,-9.726773071E0,7.035369873E-2,7.673043823E-1,9.757244490E0
1.137296733E1,-9.740245056E0,7.783813477E-2,7.848179626E-1,9.772122173E0
1.138293833E1,-9.735155640E0,5.733078003E-2,8.008346558E-1,9.768207527E0
1.139290833E1,-9.733059998E0,5.613327026E-2,8.039781189E-1,9.766370292E0
1.140287933E1,-9.740694122E0,3.472778320E-2,8.309220886E-1,9.776132135E0
1.141285033E1,-9.728120270E0,2.589614868E-2,8.202941895E-1,9.762677765E0
1.142282133E1,-9.740245056E0,2.769241333E-2,7.994874573E-1,9.773040510E0
1.143279233E1,-9.743538208E0,5.149291992E-2,7.932005310E-1,9.775906884E0
1.144276333E1,-9.727671204E0,5.284011841E-2,7.984396362E-1,9.760526880E0
1.145273333E1,-9.722282410E0,6.945556641E-2,7.789801025E-1,9.753686961E0
1.146270333E1,-9.751621399E0,6.601272583E-2,7.792794800E-1,9.782931774E0
1.147267433E1,-9.724228363E0,8.068222046E-2,7.734416199E-1,9.755272360E0
1.148264433E1,-9.731712799E0,6.182144165E-2,7.701484680E-1,9.762334995E0
1.149261533E1,-9.731263733E0,3.562591553E-2,7.887098694E-1,9.763238515E0
1.150258533E1,-9.738897858E0,3.098556519E-2,8.065228271E-1,9.772285846E0
1.151255633E1,-9.740993500E0,4.565505981E-2,8.294252014E-1,9.776348240E0
1.152252633E1,-9.723330231E0,2.903961182E-2,8.294252014E-1,9.758685375E0
1.153249733E1,-9.735904083E0,5.613327026E-2,8.053253174E-1,9.769315643E0
1.154246833E1,-9.738299103E0,6.182144165E-2,7.640112305E-1,9.768418729E0
1.155243833E1,-9.739646301E0,5.643264771E-2,7.611671448E-1,9.769507160E0
1.156240933E1,-9.748777313E0,5.284011841E-2,7.705975342E-1,9.779328798E0
1.157238033E1,-9.742191010E0,3.577560425E-2,7.911048889E-1,9.774324146E0
1.158235133E1,-9.745633850E0,4.400848389E-2,8.225395203E-1,9.780382771E0
1.159232133E1,-9.734556885E0,2.484832764E-2,8.249345398E-1,9.769479627E0
1.160229133E1,-9.735305328E0,3.981719971E-2,8.068222046E-1,9.768762323E0
1.161226133E1,-9.733958130E0,4.745132446E-2,7.809260559E-1,9.765348842E0
1.162223233E1,-9.745633850E0,5.209167480E-2,7.578739929E-1,9.775196452E0
1.163220233E1,-9.731263733E0,6.122268677E-2,7.545808411E-1,9.760667718E0
1.164217333E1,-9.732760620E0,5.673202515E-2,7.565267944E-1,9.762283575E0
1.165214333E1,-9.731263733E0,4.535568237E-2,7.969427490E-1,9.763947395E0
1.166211433E1,-9.744885406E0,4.221221924E-2,8.143066406E-1,9.778940063E0
1.167208433E1,-9.730365601E0,3.607498169E-2,8.288264465E-1,9.765667893E0
1.168205433E1,-9.736502838E0,2.170486450E-2,8.162525940E-1,9.770682009E0
1.169202533E1,-9.749376068E0,2.694396973E-2,8.107141113E-1,9.783062765E0
1.170199533E1,-9.734706573E0,4.400848389E-2,7.759863281E-1,9.765685004E0
1.171196533E1,-9.729317780E0,5.194198608E-2,7.797285461E-1,9.760650543E0
1.172193633E1,-9.746681671E0,7.978408813E-2,7.776329041E-1,9.777979445E0
1.173190733E1,-9.753567352E0,6.646179199E-2,7.649093628E-1,9.783740573E0
1.174187733E1,-9.738748169E0,6.930587769E-2,7.767347717E-1,9.769919964E0
1.175184833E1,-9.729018402E0,4.011657715E-2,7.756869507E-1,9.759974316E0
1.176181933E1,-9.740245056E0,4.026626587E-2,7.911048889E-1,9.772402063E0
1.177179033E1,-9.759554901E0,3.412902832E-2,8.054750061E-1,9.792796671E0
1.178176133E1,-9.726473694E0,2.634521484E-2,8.181985474E-1,9.760862331E0
1.179173233E1,-9.730066223E0,4.355941772E-2,8.057743835E-1,9.763470617E0
1.180170033E1,-9.738299103E0,5.493576050E-2,7.891589355E-1,9.770376614E0
1.181166633E1,-9.727222137E0,4.894821167E-2,7.764353943E-1,9.758283577E0
1.182163233E1,-9.738897858E0,5.987548828E-2,7.851173401E-1,9.770676834E0
1.183159933E1,-9.723629608E0,3.876937866E-2,8.125103760E-1,9.757594423E0
1.184156633E1,-9.746531982E0,3.233276367E-2,8.246351624E-1,9.781408602E0
1.185153333E1,-9.735455017E0,9.580078125E-3,7.976911926E-1,9.768085145E0
1.186149867E1,-9.732760620E0,4.520599365E-2,7.788304138E-1,9.763977145E0
1.187146567E1,-9.736203461E0,6.900650024E-2,7.659571838E-1,9.766530097E0
1.188143267E1,-9.737251282E0,6.436614990E-2,7.461982727E-1,9.766013382E0
1.189139867E1,-9.731114044E0,6.691085815E-2,7.845185852E-1,9.762915907E0
1.190136567E1,-9.732311554E0,5.703140259E-2,7.972421265E-1,9.765077356E0
1.191133267E1,-9.712852020E0,5.209167480E-2,8.193960571E-1,9.747492899E0
1.192129767E1,-9.739795990E0,3.951782227E-2,8.237370300E-1,9.774647323E0
1.193126367E1,-9.733958130E0,1.437011719E-2,8.093669128E-1,9.767559684E0
1.194123067E1,-9.718989258E0,1.960922241E-2,7.806266785E-1,9.750308443E0
1.195119767E1,-9.733059998E0,4.116439819E-2,7.670050049E-1,9.763321571E0
1.196116467E1,-9.749675446E0,6.152206421E-2,7.641609192E-1,9.779769842E0
1.197113067E1,-9.743687897E0,6.825805664E-2,7.515870667E-1,9.772870413E0
1.198109667E1,-9.731114044E0,6.810836792E-2,7.583230591E-1,9.760854120E0
1.199106267E1,-9.738448792E0,7.349716187E-2,7.617658997E-1,9.768473473E0
1.200102867E1,-9.747130737E0,5.523513794E-2,7.839198303E-1,9.778759575E0
1.201099467E1,-9.731563110E0,4.131408691E-2,8.250842285E-1,9.766564975E0
1.202096067E1,-9.736203461E0,8.831634521E-3,8.521778870E-1,9.773430461E0
1.203092767E1,-9.737101593E0,9.729766846E-3,8.406518555E-1,9.773327869E0
1.204089367E1,-9.742490387E0,2.993774414E-2,7.860154724E-1,9.774192321E0
1.205085967E1,-9.734706573E0,5.553451538E-2,7.731422424E-1,9.765518168E0
1.206082567E1,-9.747879181E0,7.050338745E-2,7.478448486E-1,9.776778159E0
1.207079167E1,-9.728868713E0,6.616241455E-2,7.688012695E-1,9.759422078E0
1.208075767E1,-9.736053772E0,4.924758911E-2,7.957452393E-1,9.768642631E0
1.209072267E1,-9.735005951E0,4.340972900E-2,8.059240723E-1,9.768405135E0
1.210068867E1,-9.730964355E0,3.966751099E-2,8.095166016E-1,9.764658618E0
1.211065467E1,-9.739197235E0,3.203338623E-2,7.867639160E-1,9.770976736E0
1.212062067E1,-9.734856262E0,5.029541016E-2,7.794291687E-1,9.766138741E0
1.213058667E1,-9.747280426E0,6.481521606E-2,7.671546936E-1,9.777637907E0
1.214055267E1,-9.748477936E0,6.227050781E-2,7.780819702E-1,9.779678483E0
1.215051867E1,-9.729168091E0,6.167175293E-2,7.929011536E-1,9.761619096E0
1.216048367E1,-9.719588013E0,5.972579956E-2,8.101153564E-1,9.753473494E0
1.217045067E1,-9.740095367E0,4.206253052E-2,8.006849670E-1,9.773040645E0
1.218041667E1,-9.725874939E0,3.083587646E-2,8.011340332E-1,9.758863147E0
1.219038267E1,-9.725725250E0,3.742218018E-2,8.084687805E-1,9.759341875E0
1.220034967E1,-9.730215912E0,4.206253052E-2,8.003855896E-1,9.763169979E0
1.221031667E1,-9.735604706E0,6.092330933E-2,7.813751221E-1,9.767100784E0
1.222028267E1,-9.731114044E0,5.553451538E-2,7.722441101E-1,9.761865887E0
1.223024867E1,-9.735005951E0,8.307723999E-2,7.572752380E-1,9.764768737E0
1.224021567E1,-9.749226379E0,7.649093628E-2,7.589218140E-1,9.779019796E0
1.225018067E1,-9.734706573E0,6.571334839E-2,7.756869507E-1,9.765783151E0
1.226014667E1,-9.738299103E0,5.688171387E-2,7.825726318E-1,9.769857976E0
1.227011267E1,-9.735754395E0,2.454895020E-2,8.072712708E-1,9.769196650E0
1.228007767E1,-9.737400970E0,1.916015625E-2,8.297245789E-1,9.772706260E0
1.229004367E1,-9.733658752E0,4.655319214E-2,8.141569519E-1,9.767759797E0
1.230000967E1,-9.741143188E0,4.670288086E-2,7.927514648E-1,9.773459299E0
1.230997567E1,-9.749226379E0,5.613327026E-2,7.560777283E-1,9.778661436E0
1.231994167E1,-9.731114044E0,6.556365967E-2,7.677534485E-1,9.761573874E0
1.232990867E1,-9.722432098E0,4.954696655E-2,7.740403748E-1,9.753321450E0
1.233987567E1,-9.745334473E0,3.562591553E-2,8.174501038E-1,9.779623605E0
1.234984267E1,-9.735305328E0,1.751358032E-2,8.343649292E-1,9.771010255E0
1.235980967E1,-9.737850037E0,2.604583740E-2,8.147557068E-1,9.771910181E0
1.236977667E1,-9.724976807E0,1.960922241E-2,7.990383911E-1,9.757767202E0
1.237974367E1,-9.732610931E0,3.038681030E-2,7.536827087E-1,9.761796788E0
1.238971167E1,-9.738897858E0,7.454498291E-2,7.461982727E-1,9.767727489E0
1.239967867E1,-9.738299103E0,6.212081909E-2,7.604187012E-1,9.768140305E0
1.240964667E1,-9.734556885E0,5.867797852E-2,7.836204529E-1,9.766222497E0
1.241961367E1,-9.740993500E0,3.412902832E-2,8.168513489E-1,9.775242467E0
1.242958067E1,-9.732910309E0,2.320175171E-2,8.336164856E-1,9.768571945E0
1.243954767E1,-9.729018402E0,2.185455322E-2,8.454418945E-1,9.765707792E0
1.244951567E1,-9.738897858E0,1.197509766E-2,8.068222046E-1,9.772268772E0
1.245948267E1,-9.732311554E0,3.472778320E-2,7.789801025E-1,9.763498564E0
1.246944867E1,-9.731263733E0,6.691085815E-2,7.677534485E-1,9.761732237E0
1.247941567E1,-9.741891632E0,7.214996338E-2,7.478448486E-1,9.770820339E0
1.248938167E1,-9.738748169E0,6.900650024E-2,7.614665222E-1,9.768715835E0
1.249934767E1,-9.735305328E0,6.915618896E-2,7.813751221E-1,9.766857196E0
1.250931367E1,-9.747280426E0,5.074447632E-2,8.090675354E-1,9.780932521E0
1.251928067E1,-9.747430115E0,1.826202393E-2,8.155041504E-1,9.781501642E0
1.252924667E1,-9.729467468E0,7.783813477E-3,8.183482361E-1,9.763825666E0
1.253921367E1,-9.731862488E0,1.511856079E-2,8.095166016E-1,9.765484790E0
1.254917967E1,-9.726024628E0,3.832031250E-2,7.978408813E-1,9.758769061E0
1.255914467E1,-9.737251282E0,6.137237549E-2,7.978408813E-1,9.770075699E0
1.256911167E1,-9.736951904E0,6.242019653E-2,7.785310364E-1,9.768226003E0
1.257907767E1,-9.734107819E0,6.870712280E-2,7.750881958E-1,9.765159364E0
1.258904367E1,-9.746082916E0,4.834945679E-2,7.854167175E-1,9.777798796E0
1.259900967E1,-9.744885406E0,2.350112915E-2,7.899073792E-1,9.776875654E0
1.260897567E1,-9.757459259E0,2.380050659E-2,8.044271851E-1,9.790591440E0
1.261894267E1,-9.737999725E0,4.385879517E-2,8.086184692E-1,9.771613279E0
1.262890867E1,-9.725425873E0,4.206253052E-2,7.982899475E-1,9.758224454E0
1.263887567E1,-9.720037079E0,6.706054688E-2,7.801776123E-1,9.751527831E0
1.264884167E1,-9.726024628E0,6.077362061E-2,7.806266785E-1,9.757490789E0
1.265880867E1,-9.720486145E0,7.634124756E-2,7.887098694E-1,9.752729984E0
1.266877567E1,-9.732461243E0,6.107299805E-2,7.845185852E-1,9.764220458E0
1.267874167E1,-9.734407196E0,4.011657715E-2,7.878117371E-1,9.766316610E0
1.268870767E1,-9.748028870E0,3.757186890E-2,8.101153564E-1,9.781705648E0
1.269867367E1,-9.747579803E0,3.427871704E-2,8.119116211E-1,9.781394969E0
1.270864067E1,-9.728419647E0,3.667373657E-2,8.014334106E-1,9.761444018E0
1.271860767E1,-9.729916534E0,3.098556519E-2,7.982899475E-1,9.762658588E0
1.272857467E1,-9.732760620E0,4.490661621E-2,7.744894409E-1,9.763630461E0
1.273854167E1,-9.732760620E0,6.481521606E-2,7.614665222E-1,9.762717939E0
1.274850867E1,-9.732610931E0,7.349716187E-2,7.625143433E-1,9.762711995E0
1.275847467E1,-9.743987274E0,6.361770630E-2,7.876620483E-1,9.775978044E0
1.276844067E1,-9.741143188E0,5.403762817E-2,8.120613098E-1,9.775082314E0
1.277840767E1,-9.731413422E0,4.161346436E-2,8.050259399E-1,9.764742988E0
1.278837467E1,-9.737999725E0,3.966751099E-2,8.098159790E-1,9.771694535E0
1.279834167E1,-9.734856262E0,3.817062378E-2,8.009843445E-1,9.767827771E0
1.280830767E1,-9.737101593E0,4.460723877E-2,7.881111145E-1,9.769045827E0
1.281827367E1,-9.744735718E0,5.448669434E-2,7.701484680E-1,9.775273483E0
1.282824067E1,-9.732760620E0,7.005432129E-2,7.716453552E-1,9.763553321E0
1.283820667E1,-9.751172333E0,4.924758911E-2,8.023315430E-1,9.784248724E0
1.284817267E1,-9.744286652E0,5.628295898E-2,8.152047729E-1,9.778489093E0
1.285814029E1,-9.728419647E0,4.730163574E-2,8.015830994E-1,9.761502023E0
1.286810629E1,-9.737101593E0,4.700225830E-2,7.688012695E-1,9.767518213E0
1.287807129E1,-9.729916534E0,5.942642212E-2,7.628137207E-1,9.759953485E0
1.288803829E1,-9.729317780E0,7.020401001E-2,7.453001404E-1,9.758074880E0
1.289800429E1,-9.738748169E0,6.451583862E-2,7.761360168E-1,9.769839574E0
1.290796929E1,-9.744885406E0,7.274871826E-2,7.993377686E-1,9.777884476E0
1.291793529E1,-9.736502838E0,4.909790039E-2,8.038284302E-1,9.769751188E0
1.292790129E1,-9.753118286E0,2.993774414E-2,8.158035278E-1,9.787223711E0
1.293786629E1,-9.737251282E0,4.161346436E-2,8.089178467E-1,9.770882370E0
1.294783229E1,-9.729317780E0,3.143463135E-2,7.993377686E-1,9.762149019E0
1.295779829E1,-9.743388519E0,3.772155762E-2,7.934999084E-1,9.775719148E0
1.296776329E1,-9.746831360E0,4.011657715E-2,7.782316589E-1,9.777933085E0
1.297772929E1,-9.732910309E0,6.242019653E-2,7.794291687E-1,9.764269004E0
1.298769529E1,-9.734706573E0,6.676116943E-2,7.746391296E-1,9.765707087E0
1.299766129E1,-9.731712799E0,8.412506104E-2,7.632627869E-1,9.761960926E0
1.300762729E1,-9.746082916E0,5.598358154E-2,7.503895569E-1,9.775088279E0
1.301759329E1,-9.732610931E0,4.894821167E-2,7.952961731E-1,9.765173192E0
1.302755829E1,-9.733209686E0,2.619552612E-2,8.072712708E-1,9.766664933E0
1.303752529E1,-9.739346924E0,2.230361938E-2,8.174501038E-1,9.773617581E0
1.304749129E1,-9.747579803E0,3.712280273E-2,8.098159790E-1,9.781231622E0
1.305745729E1,-9.731413422E0,4.999603271E-2,8.083190918E-1,9.765054354E0
1.306742329E1,-9.745184784E0,6.212081909E-2,7.713459778E-1,9.775861092E0
1.307739029E1,-9.728569336E0,6.900650024E-2,7.888595581E-1,9.760743959E0
1.308735629E1,-9.740095367E0,4.460723877E-2,8.051756287E-1,9.773420863E0
1.309732229E1,-9.734407196E0,3.382965088E-2,7.955955505E-1,9.766923783E0
1.310728829E1,-9.743388519E0,3.502716064E-2,7.917036438E-1,9.775563482E0
1.311725429E1,-9.746531982E0,5.313949585E-2,8.008346558E-1,9.779521749E0
1.312722129E1,-9.724378052E0,4.415817261E-2,7.626640320E-1,9.754339284E0
1.313718829E1,-9.738748169E0,5.433700562E-2,7.575746155E-1,9.768320619E0
1.314715529E1,-9.743987274E0,4.969665527E-2,7.665559387E-1,9.774219445E0
1.315712229E1,-9.737850037E0,6.601272583E-2,7.903564453E-1,9.770094387E0
1.316708929E1,-9.735754395E0,4.894821167E-2,8.095166016E-1,9.769474228E0
1.317705529E1,-9.721084900E0,4.296066284E-2,8.150550842E-1,9.755288414E0
1.318702229E1,-9.735754395E0,3.936813354E-2,8.105644226E-1,9.769517806E0
1.319698829E1,-9.750872955E0,3.472778320E-2,7.911048889E-1,9.782973799E0
1.320695429E1,-9.738598480E0,3.397933960E-2,7.804769897E-1,9.769882255E0
1.321692129E1,-9.725126495E0,4.370910645E-2,7.686515808E-1,9.755553346E0
1.322688829E1,-9.739646301E0,6.107299805E-2,7.520361328E-1,9.768827889E0
1.323685529E1,-9.736951904E0,7.529342651E-2,7.508386230E-1,9.766148684E0
1.324682129E1,-9.737999725E0,7.140151978E-2,7.735913086E-1,9.768939571E0
1.325678829E1,-9.734107819E0,5.254074097E-2,7.927514648E-1,9.766476869E0
1.326675429E1,-9.739346924E0,4.640350342E-2,8.056246948E-1,9.772720345E0
1.327672129E1,-9.727371826E0,7.484436035E-3,8.101153564E-1,9.761050433E0
1.328668629E1,-9.727521515E0,1.422042847E-2,8.318202209E-1,9.763032414E0
1.329665429E1,-9.738748169E0,2.529739380E-2,8.155041504E-1,9.772865643E0
1.330662029E1,-9.740245056E0,3.562591553E-2,7.958949280E-1,9.772772979E0
1.331658629E1,-9.728569336E0,6.481521606E-2,7.755372620E-1,9.759647554E0
1.332655129E1,-9.747430115E0,5.927673340E-2,7.897576904E-1,9.779551359E0
1.333651729E1,-9.748927002E0,5.298980713E-2,8.041278076E-1,9.782178037E0
1.334648329E1,-9.746232605E0,3.742218018E-2,8.078700256E-1,9.779729259E0
1.335644829E1,-9.742939453E0,2.724334717E-2,7.860154724E-1,9.774632050E0
1.336641429E1,-9.737400970E0,3.996688843E-2,7.729925537E-1,9.768116118E0
1.337638129E1,-9.726623383E0,7.080276489E-2,7.794291687E-1,9.758059504E0
1.338634629E1,-9.735155640E0,4.849914551E-2,7.634124756E-1,9.765162882E0
1.339631229E1,-9.740095367E0,4.520599365E-2,7.789801025E-1,9.771300392E0
1.340627829E1,-9.735604706E0,6.122268677E-2,8.017327881E-1,9.768752360E0
1.341624429E1,-9.739646301E0,3.697311401E-2,8.008346558E-1,9.772584777E0
1.342621029E1,-9.740394745E0,3.981719971E-2,8.108638000E-1,9.774168778E0
1.343617729E1,-9.736053772E0,3.367996216E-2,8.011340332E-1,9.769016999E0
1.344614329E1,-9.743687897E0,3.712280273E-2,8.054750061E-1,9.776994524E0
1.345610829E1,-9.739496613E0,3.697311401E-2,7.827223206E-1,9.770967992E0
1.346607429E1,-9.722881165E0,4.116439819E-2,7.785310364E-1,9.754087514E0
1.347604029E1,-9.735754395E0,7.229965210E-2,7.756869507E-1,9.766874173E0
1.348600529E1,-9.723928986E0,6.182144165E-2,7.720944214E-1,9.754729448E0
1.349597129E1,-9.729317780E0,6.197113037E-2,7.798782349E-1,9.760721025E0
1.350593729E1,-9.738448792E0,5.044509888E-2,7.855664063E-1,9.770212083E0
1.351590229E1,-9.732012177E0,2.529739380E-2,7.934999084E-1,9.764340381E0
1.352586829E1,-9.740694122E0,3.248245239E-2,8.159532166E-1,9.774863515E0
1.353583429E1,-9.736502838E0,2.185455322E-2,8.165519714E-1,9.770707357E0
1.354579929E1,-9.744286652E0,4.819976807E-2,8.089178467E-1,9.777923790E0
1.355576529E1,-9.732610931E0,6.466552734E-2,7.894583130E-1,9.764790914E0
1.356573029E1,-9.732910309E0,7.738906860E-2,7.756869507E-1,9.764078164E0
1.357569629E1,-9.731712799E0,7.304809570E-2,7.782316589E-1,9.763053546E0
1.358566229E1,-9.739945679E0,4.116439819E-2,7.906558228E-1,9.772071068E0
1.359562829E1,-9.740095367E0,4.041595459E-2,8.077203369E-1,9.773612605E0
1.360559329E1,-9.742191010E0,5.119354248E-2,7.918533325E-1,9.774453343E0
1.361556029E1,-9.744436340E0,3.562591553E-2,7.734416199E-1,9.775148118E0
1.362552629E1,-9.739795990E0,4.999603271E-2,7.804769897E-1,9.771144757E0
1.363549229E1,-9.727820892E0,5.688171387E-2,7.933502197E-1,9.760283777E0
1.364545829E1,-9.737101593E0,6.795867920E-2,7.987390137E-1,9.770043492E0
1.365542429E1,-9.730215912E0,3.667373657E-2,8.047265625E-1,9.763505082E0
1.366539129E1,-9.736053772E0,4.550537109E-2,8.126600647E-1,9.770016897E0
1.367535729E1,-9.731413422E0,3.727249146E-2,8.217910767E-1,9.766121902E0
1.368532329E1,-9.723629608E0,2.649490356E-2,7.996371460E-1,9.756489856E0
1.369528929E1,-9.747130737E0,2.200424194E-2,8.008346558E-1,9.779998872E0
1.370525529E1,-9.730664978E0,4.206253052E-2,7.946974182E-1,9.763152880E0
1.371522129E1,-9.725126495E0,6.825805664E-2,7.839198303E-1,9.756909081E0
1.372518629E1,-9.727072449E0,5.897735596E-2,7.671546936E-1,9.757455769E0
1.373515229E1,-9.733958130E0,7.065307617E-2,7.689509583E-1,9.764538817E0
1.374511829E1,-9.744735718E0,4.355941772E-2,7.713459778E-1,9.775313102E0
1.375508329E1,-9.745783539E0,5.254074097E-2,7.869136047E-1,9.777642371E0
1.376504829E1,-9.729916534E0,3.023712158E-2,7.949967957E-1,9.762387513E0
1.377501429E1,-9.738748169E0,1.721420288E-2,8.147557068E-1,9.772785636E0
1.378498029E1,-9.752220154E0,3.218307495E-2,8.219407654E-1,9.786849355E0
1.379494629E1,-9.744286652E0,4.026626587E-2,7.929011536E-1,9.776575881E0
1.380491329E1,-9.738748169E0,4.011657715E-2,7.629634094E-1,9.768671271E0
1.381487829E1,-9.737550659E0,6.286926270E-2,7.797285461E-1,9.768921230E0
1.382484529E1,-9.742640076E0,6.032455444E-2,7.792794800E-1,9.773942460E0
1.383481129E1,-9.740095367E0,5.044509888E-2,7.990383911E-1,9.772945555E0
1.384477729E1,-9.732610931E0,4.969665527E-2,8.044271851E-1,9.765924861E0
1.385474229E1,-9.750124512E0,3.817062378E-2,7.804769897E-1,9.781386881E0
1.386470896E1,-9.731114044E0,5.269042969E-2,7.830216980E-1,9.762708630E0
1.387467496E1,-9.735904083E0,4.595443726E-2,7.882608032E-1,9.767870557E0
1.388464196E1,-9.745484161E0,5.284011841E-2,7.818241882E-1,9.776937285E0
1.389460796E1,-9.734856262E0,3.697311401E-2,8.029302979E-1,9.767982930E0
1.390457396E1,-9.735455017E0,3.308120728E-2,8.087681580E-1,9.769047276E0
1.391453896E1,-9.731862488E0,5.269042969E-2,7.888595581E-1,9.763924578E0
1.392450496E1,-9.722282410E0,3.562591553E-2,7.890092468E-1,9.754310844E0
1.393446996E1,-9.729766846E0,4.909790039E-2,7.906558228E-1,9.761962411E0
1.394443596E1,-9.733059998E0,4.101470947E-2,7.812254333E-1,9.764448387E0
1.395440096E1,-9.724677429E0,3.472778320E-2,7.845185852E-1,9.756332637E0
1.396436696E1,-9.733658752E0,5.718109131E-2,7.973918152E-1,9.766433131E0
1.397433296E1,-9.738299103E0,4.610412598E-2,7.849676514E-1,9.769993307E0
1.398429896E1,-9.732910309E0,3.966751099E-2,7.903564453E-1,9.765028413E0
1.399426596E1,-9.748627625E0,5.852828979E-2,7.888595581E-1,9.780667949E0
1.400423196E1,-9.733808441E0,5.792953491E-2,7.795788574E-1,9.765148529E0
1.401419796E1,-9.732461243E0,3.817062378E-2,7.979905701E-1,9.765195737E0
1.402416396E1,-9.734856262E0,4.984634399E-2,8.057743835E-1,9.768274334E0
1.403413196E1,-9.748028870E0,4.086502075E-2,8.090675354E-1,9.781632127E0
1.404409796E1,-9.716444550E0,4.864883423E-2,7.978408813E-1,9.749267227E0
1.405406396E1,-9.736652527E0,5.583389282E-2,7.858657837E-1,9.768475054E0
1.406402996E1,-9.741741943E0,4.565505981E-2,7.758366394E-1,9.772693742E0
1.407399596E1,-9.743538208E0,5.598358154E-2,7.758366394E-1,9.774538018E0
1.408396196E1,-9.738448792E0,4.924758911E-2,7.878117371E-1,9.770386764E0
1.409392796E1,-9.743837585E0,3.128494263E-2,8.128097534E-1,9.777730275E0
1.410389396E1,-9.723629608E0,4.251159668E-2,8.041278076E-1,9.756915574E0
1.411386096E1,-9.736802216E0,5.074447632E-2,7.920030212E-1,9.769092137E0
1.412382696E1,-9.734556885E0,4.071533203E-2,7.686515808E-1,9.764941410E0
1.413379296E1,-9.736353149E0,5.643264771E-2,7.620652771E-1,9.766294117E0
1.414375796E1,-9.729317780E0,5.733078003E-2,7.756869507E-1,9.760358678E0
1.415372396E1,-9.730964355E0,4.101470947E-2,8.024812317E-1,9.764083450E0
1.416368996E1,-9.722881165E0,2.245330811E-2,8.259823608E-1,9.757928528E0
1.417365596E1,-9.740544434E0,4.385879517E-2,8.196954346E-1,9.775071870E0
1.418362096E1,-9.734407196E0,4.251159668E-2,7.966433716E-1,9.767043122E0
1.419358696E1,-9.731114044E0,4.326004028E-2,7.882608032E-1,9.763083891E0
1.420355296E1,-9.725575562E0,6.137237549E-2,7.797285461E-1,9.756975104E0
1.421351896E1,-9.740245056E0,6.481521606E-2,7.670050049E-1,9.770612644E0
1.422348496E1,-9.737101593E0,5.179229736E-2,7.836204529E-1,9.768720023E0
1.423345196E1,-9.732311554E0,4.939727783E-2,7.905061340E-1,9.764488119E0
1.424341796E1,-9.740843811E0,4.819976807E-2,7.914042664E-1,9.773058993E0
1.425338296E1,-9.732012177E0,5.194198608E-2,7.861651611E-1,9.763852448E0
1.426334896E1,-9.742490387E0,5.718109131E-2,7.842192078E-1,9.774169447E0
1.427331396E1,-9.742041321E0,4.251159668E-2,7.943980408E-1,9.774469018E0
1.428327996E1,-9.737400970E0,4.086502075E-2,7.804769897E-1,9.768714959E0
1.429324496E1,-9.733059998E0,4.400848389E-2,8.054750061E-1,9.766431469E0
1.430320996E1,-9.731712799E0,4.655319214E-2,8.081694031E-1,9.765323291E0
1.431317496E1,-9.736652527E0,6.361770630E-2,7.879614258E-1,9.768691460E0
1.432314096E1,-9.732311554E0,4.805007935E-2,7.842192078E-1,9.763974435E0
1.433310596E1,-9.742041321E0,5.433700562E-2,7.849676514E-1,9.773765693E0
1.434307096E1,-9.735455017E0,6.032455444E-2,7.840695190E-1,9.767163788E0
1.435303596E1,-9.732760620E0,3.562591553E-2,8.054750061E-1,9.766098939E0
1.436300196E1,-9.741143188E0,3.996688843E-2,7.981402588E-1,9.773868008E0
1.437296696E1,-9.732760620E0,4.700225830E-2,7.845185852E-1,9.764440993E0
1.438293296E1,-9.734556885E0,6.750961304E-2,7.867639160E-1,9.766532279E0
1.439289796E1,-9.733808441E0,5.583389282E-2,7.813751221E-1,9.765279887E0
1.440286396E1,-9.738748169E0,4.640350342E-2,7.920030212E-1,9.771010079E0
1.441282996E1,-9.736353149E0,3.712280273E-2,7.884104919E-1,9.768292679E0
1.442279496E1,-9.725575562E0,3.472778320E-2,8.045768738E-1,9.758861100E0
1.443275996E1,-9.740544434E0,3.832031250E-2,7.822732544E-1,9.771981670E0
1.444272496E1,-9.730515289E0,5.792953491E-2,7.973918152E-1,9.763304632E0
1.445268996E1,-9.727521515E0,4.939727783E-2,7.982899475E-1,9.760347420E0
1.446265496E1,-9.740394745E0,6.062393188E-2,7.870632935E-1,9.772330002E0
1.447262096E1,-9.722731476E0,4.864883423E-2,7.888595581E-1,9.754802585E0
1.448258596E1,-9.739047546E0,4.595443726E-2,7.902067566E-1,9.771160916E0
1.449255196E1,-9.725874939E0,4.670288086E-2,8.036787415E-1,9.759135413E0
1.450251796E1,-9.732910309E0,4.236190796E-2,8.086184692E-1,9.766534771E0
1.451248396E1,-9.728868713E0,5.044509888E-2,7.848179626E-1,9.760602972E0
1.452244996E1,-9.720037079E0,4.954696655E-2,7.896080017E-1,9.752182141E0
1.453241596E1,-9.733808441E0,4.625381470E-2,7.699987793E-1,9.764326106E0
1.454238296E1,-9.725425873E0,5.059478760E-2,7.840695190E-1,9.757111932E0
1.455234896E1,-9.740245056E0,5.254074097E-2,7.914042664E-1,9.772484587E0
1.456231396E1,-9.727521515E0,3.712280273E-2,7.870632935E-1,9.759381207E0
1.457227996E1,-9.727970581E0,7.020401001E-2,7.990383911E-1,9.760983689E0
1.458224596E1,-9.740394745E0,4.490661621E-2,8.056246948E-1,9.773757596E0
1.459221196E1,-9.722731476E0,4.760101318E-2,7.908055115E-1,9.754954975E0
1.460217796E1,-9.732910309E0,5.269042969E-2,8.029302979E-1,9.766115729E0
1.461214396E1,-9.729168091E0,4.026626587E-2,7.954458618E-1,9.761714359E0
1.462210996E1,-9.723030853E0,4.610412598E-2,7.756869507E-1,9.754032233E0
1.463207696E1,-9.748777313E0,3.787124634E-2,7.726931763E-1,9.779424731E0
1.464204396E1,-9.739945679E0,5.852828979E-2,7.930508423E-1,9.772353709E0
1.465201096E1,-9.743837585E0,6.481521606E-2,7.863148499E-1,9.775728257E0
1.466197696E1,-9.737251282E0,4.146377563E-2,7.979905701E-1,9.769983148E0
1.467194296E1,-9.736502838E0,3.772155762E-2,7.982899475E-1,9.769246505E0
1.468190896E1,-9.742939453E0,5.478607178E-2,7.893086243E-1,9.775012982E0
1.469187496E1,-9.744436340E0,3.592529297E-2,7.870632935E-1,9.776236436E0
1.470184196E1,-9.723479919E0,5.343887329E-2,7.867639160E-1,9.755404395E0
1.471180796E1,-9.732760620E0,4.490661621E-2,7.750881958E-1,9.763677975E0
1.472177496E1,-9.726024628E0,3.203338623E-2,7.855664063E-1,9.757750549E0
1.473174196E1,-9.736053772E0,2.649490356E-2,8.084687805E-1,9.769599112E0
1.474170896E1,-9.729617157E0,4.685256958E-2,7.966433716E-1,9.762288966E0
1.475167596E1,-9.735754395E0,6.900650024E-2,7.876620483E-1,9.767808712E0
1.476164296E1,-9.733658752E0,4.640350342E-2,7.822732544E-1,9.765153221E0
1.477160896E1,-9.737550659E0,4.131408691E-2,7.809260559E-1,9.768901944E0
1.478157596E1,-9.719138947E0,5.164260864E-2,7.768844604E-1,9.750275806E0
1.479154296E1,-9.724976807E0,4.999603271E-2,7.656578064E-1,9.755198889E0
1.480150996E1,-9.745783539E0,5.418731689E-2,7.785310364E-1,9.776980292E0
1.481147596E1,-9.742191010E0,4.999603271E-2,7.791297913E-1,9.773424605E0
1.482144096E1,-9.727521515E0,5.493576050E-2,7.632627869E-1,9.757574639E0
1.483140696E1,-9.738897858E0,5.179229736E-2,7.741900635E-1,9.769758655E0
1.484137296E1,-9.724078674E0,3.023712158E-2,7.834707642E-1,9.755636667E0
1.485133896E1,-9.741592255E0,3.652404785E-2,8.141569519E-1,9.775623008E0
1.486130533E1,-9.743987274E0,3.592529297E-2,8.351133728E-1,9.779774689E0
1.487127533E1,-9.740694122E0,2.709365845E-2,8.259823608E-1,9.775689383E0
1.488124633E1,-9.721384277E0,5.358856201E-2,7.911048889E-1,9.753667564E0
1.489121633E1,-9.735305328E0,3.427871704E-2,7.661068726E-1,9.765462847E0
1.490118633E1,-9.738748169E0,7.050338745E-2,7.472460938E-1,9.767628338E0
1.491115733E1,-9.722132721E0,7.334747314E-2,7.429051208E-1,9.750751382E0
1.492112933E1,-9.722881165E0,8.352630615E-2,7.526348877E-1,9.752325572E0
1.493110033E1,-9.720037079E0,7.125183105E-2,7.894583130E-1,9.752304449E0
1.494107133E1,-9.729467468E0,5.882766724E-2,8.147557068E-1,9.763699338E0
1.495104133E1,-9.744586029E0,2.080673218E-2,8.452922058E-1,9.781201803E0
1.496101233E1,-9.730066223E0,1.137634277E-2,8.490344238E-1,9.767045489E0
1.497098333E1,-9.740694122E0,2.469863892E-2,7.908055115E-1,9.772773678E0
1.498095333E1,-9.723030853E0,6.062393188E-2,7.777825928E-1,9.754278548E0
1.499092333E1,-9.738598480E0,6.825805664E-2,7.491920471E-1,9.767612208E0
1.500089433E1,-9.728419647E0,7.664062500E-2,7.623646545E-1,9.758546126E0
1.501086433E1,-9.723779297E0,6.481521606E-2,7.857160950E-1,9.755687296E0
1.502083433E1,-9.728419647E0,5.957611084E-2,7.792794800E-1,9.759763043E0
1.503080533E1,-9.742789764E0,4.580474854E-2,7.825726318E-1,9.774275952E0
1.504077633E1,-9.739795990E0,3.832031250E-2,7.873626709E-1,9.771644404E0
1.505074633E1,-9.737400970E0,3.547622681E-2,8.036787415E-1,9.770574995E0
1.506071733E1,-9.726174316E0,5.284011841E-2,8.072712708E-1,9.759761566E0
1.507068733E1,-9.741442566E0,4.595443726E-2,8.032296753E-1,9.774609608E0
1.508065733E1,-9.720635834E0,4.131408691E-2,8.024812317E-1,9.753791263E0
1.509062733E1,-9.727222137E0,7.304809570E-2,7.827223206E-1,9.758936457E0
1.510059833E1,-9.746531982E0,7.843688965E-2,7.664062500E-1,9.776932882E0
1.511056933E1,-9.753118286E0,4.415817261E-2,7.806266785E-1,9.784408222E0
1.512054033E1,-9.737999725E0,3.218307495E-2,8.042774963E-1,9.771209582E0
1.513051033E1,-9.748477936E0,5.239105225E-2,8.033793640E-1,9.781665773E0
1.514048033E1,-9.725425873E0,3.817062378E-2,8.189469910E-1,9.759920060E0
1.515045033E1,-9.726773071E0,3.532653809E-2,8.095166016E-1,9.760465126E0
1.516042033E1,-9.737700348E0,3.757186890E-2,7.958949280E-1,9.770244032E0
1.517039133E1,-9.737251282E0,6.541397095E-2,7.497908020E-1,9.766295498E0
1.518036133E1,-9.740394745E0,6.496490479E-2,7.557783508E-1,9.769887980E0
1.519033233E1,-9.734407196E0,5.852828979E-2,7.809260559E-1,9.765856569E0
1.520030333E1,-9.740394745E0,3.981719971E-2,8.044271851E-1,9.773636902E0
1.521027433E1,-9.743987274E0,4.775070190E-2,8.267308044E-1,9.779113045E0
1.522024433E1,-9.736053772E0,4.565505981E-2,8.186476135E-1,9.770517456E0
1.523021433E1,-9.734407196E0,2.978805542E-2,8.009843445E-1,9.767351059E0
1.524018433E1,-9.727222137E0,4.580474854E-2,7.807763672E-1,9.758614672E0
1.525015533E1,-9.722581787E0,4.939727783E-2,7.773335266E-1,9.753731804E0
1.526012633E1,-9.731263733E0,7.469467163E-2,7.765850830E-1,9.762487261E0
1.527009633E1,-9.732311554E0,5.822891235E-2,7.737409973E-1,9.763193838E0
1.528006633E1,-9.729766846E0,4.924758911E-2,7.794291687E-1,9.761060292E0
1.529003533E1,-9.721384277E0,4.355941772E-2,7.897576904E-1,9.753508441E0
1.530000533E1,-9.737251282E0,5.074447632E-2,7.899073792E-1,9.769370051E0
1.530997533E1,-9.740095367E0,4.430786133E-2,8.152047729E-1,9.774250855E0
1.531994433E1,-9.720336456E0,2.245330811E-2,8.155041504E-1,9.754511366E0
1.532991333E1,-9.729916534E0,4.176315308E-2,8.005352783E-1,9.762882600E0
1.533988333E1,-9.720186768E0,4.969665527E-2,7.774832153E-1,9.751357890E0
1.534985133E1,-9.738149414E0,6.571334839E-2,7.731422424E-1,9.769013317E0
1.535982133E1,-9.717043304E0,5.673202515E-2,7.686515808E-1,9.747562483E0
1.536979133E1,-9.740095367E0,5.433700562E-2,7.759863281E-1,9.771108691E0
1.537976033E1,-9.760303345E0,4.790039063E-2,7.911048889E-1,9.792428850E0
1.538973033E1,-9.738897858E0,2.799179077E-2,8.274792480E-1,9.774028695E0
1.539969933E1,-9.735305328E0,2.424957275E-2,8.261320496E-1,9.770325073E0
1.540966833E1,-9.732012177E0,2.918930054E-2,7.897576904E-1,9.764047840E0
1.541963733E1,-9.736502838E0,5.733078003E-2,7.604187012E-1,9.766320235E0
1.542960633E1,-9.731413422E0,7.454498291E-2,7.541317749E-1,9.760874903E0
1.543957533E1,-9.731413422E0,6.885681152E-2,7.658074951E-1,9.761742138E0
1.544954433E1,-9.735754395E0,7.409591675E-2,7.863148499E-1,9.767737449E0
1.545951333E1,-9.725126495E0,4.565505981E-2,8.053253174E-1,9.758520308E0
1.546948333E1,-9.730066223E0,3.382965088E-2,8.119116211E-1,9.763940477E0
1.547945233E1,-9.729766846E0,3.038681030E-2,8.199948120E-1,9.764306310E0
1.548942133E1,-9.739945679E0,1.616638184E-2,8.226892090E-1,9.774641718E0
1.549939133E1,-9.748477936E0,3.353027344E-2,7.929011536E-1,9.780727917E0
1.550936133E1,-9.731862488E0,5.478607178E-2,7.774832153E-1,9.763023566E0
1.551933133E1,-9.744735718E0,7.140151978E-2,7.743397522E-1,9.775713500E0
1.552930133E1,-9.740394745E0,8.517288208E-2,7.827223206E-1,9.772164470E0
1.553927033E1,-9.732461243E0,6.346801758E-2,7.794291687E-1,9.763828135E0
1.554923933E1,-9.727371826E0,5.748046875E-2,7.679031372E-1,9.757804152E0
1.555920833E1,-9.743388519E0,3.367996216E-2,7.875123596E-1,9.775220197E0
1.556917833E1,-9.730814667E0,1.796264648E-2,8.134085083E-1,9.764768821E0
1.557914733E1,-9.749825134E0,1.706451416E-2,8.300239563E-1,9.785107108E0
1.558911633E1,-9.741592255E0,3.233276367E-2,7.975415039E-1,9.774238462E0
1.559908533E1,-9.737550659E0,3.802093506E-2,8.134085083E-1,9.771538867E0
1.560905433E1,-9.722432098E0,5.733078003E-2,7.777825928E-1,9.753661799E0
1.561902333E1,-9.739496613E0,5.748046875E-2,7.649093628E-1,9.769656320E0
1.562899233E1,-9.739197235E0,7.379653931E-2,7.488926697E-1,9.768226499E0
1.563896133E1,-9.736353149E0,5.179229736E-2,7.792794800E-1,9.767626713E0
1.564893133E1,-9.734856262E0,3.158432007E-2,8.101153564E-1,9.768557258E0
1.565890033E1,-9.739047546E0,3.068618774E-2,8.048762512E-1,9.772298324E0
1.566886933E1,-9.732461243E0,4.071533203E-2,8.035290527E-1,9.765660168E0
1.567883833E1,-9.729916534E0,3.996688843E-2,7.810757446E-1,9.761298707E0
1.568880833E1,-9.740843811E0,5.448669434E-2,7.593708801E-1,9.770550194E0
1.569877733E1,-9.732610931E0,5.673202515E-2,7.746391296E-1,9.763554673E0
1.570874733E1,-9.727222137E0,7.065307617E-2,7.982899475E-1,9.760179773E0
1.571871633E1,-9.733658752E0,6.047424316E-2,8.089178467E-1,9.767400776E0
1.572868533E1,-9.723629608E0,4.146377563E-2,7.899073792E-1,9.755749365E0
1.573865533E1,-9.736053772E0,3.592529297E-2,7.937992859E-1,9.768426229E0
1.574862533E1,-9.749525757E0,5.059478760E-2,7.920030212E-1,9.781772902E0
1.575859433E1,-9.720935211E0,5.044509888E-2,7.830216980E-1,9.752550901E0
1.576856333E1,-9.725575562E0,6.047424316E-2,7.961943054E-1,9.758299161E0
1.577853233E1,-9.731862488E0,4.715194702E-2,7.917036438E-1,9.764126456E0
1.578850133E1,-9.742939453E0,5.553451538E-2,7.798782349E-1,9.774260245E0
1.579847033E1,-9.737999725E0,5.568420410E-2,7.713459778E-1,9.768659785E0
1.580843833E1,-9.737101593E0,4.146377563E-2,7.854167175E-1,9.768814979E0
1.581840733E1,-9.735904083E0,5.448669434E-2,7.972421265E-1,9.768643310E0
1.582837633E1,-9.740095367E0,4.954696655E-2,7.976911926E-1,9.772830905E0
1.583834533E1,-9.740544434E0,4.101470947E-2,7.929011536E-1,9.772849140E0
1.584831433E1,-9.732910309E0,3.876937866E-2,7.906558228E-1,9.765049041E0
1.585828333E1,-9.742191010E0,5.987548828E-2,7.878117371E-1,9.774176082E0
1.586825279E1,-9.733509064E0,6.436614990E-2,7.843688965E-1,9.765273998E0
1.587822179E1,-9.737550659E0,6.032455444E-2,7.788304138E-1,9.768833539E0
1.588819079E1,-9.734257507E0,7.828720093E-2,7.688012695E-1,9.764883691E0
1.589816079E1,-9.748028870E0,4.340972900E-2,7.900570679E-1,9.780089029E0
1.590812979E1,-9.722432098E0,3.981719971E-2,8.175997925E-1,9.756830466E0
1.591809979E1,-9.727970581E0,4.251159668E-2,8.075706482E-1,9.761525967E0
1.592806979E1,-9.722132721E0,4.909790039E-2,7.924520874E-1,9.754499247E0
1.593803979E1,-9.737400970E0,4.011657715E-2,7.755372620E-1,9.768318435E0
1.594801079E1,-9.736353149E0,5.448669434E-2,7.578739929E-1,9.765956914E0
1.595798079E1,-9.742340698E0,6.750961304E-2,7.632627869E-1,9.772427023E0
1.596795179E1,-9.749525757E0,5.149291992E-2,7.702981567E-1,9.780044134E0
1.597792179E1,-9.751771088E0,5.508544922E-2,7.984396362E-1,9.784558222E0
1.598789279E1,-9.733808441E0,3.607498169E-2,8.098159790E-1,9.767503780E0
1.599786279E1,-9.742789764E0,3.367996216E-2,7.984396362E-1,9.775509838E0
1.600783379E1,-9.744286652E0,3.981719971E-2,7.994874573E-1,9.777110409E0
1.601780379E1,-9.740245056E0,4.026626587E-2,7.855664063E-1,9.771955265E0
1.602777479E1,-9.741292877E0,4.251159668E-2,7.806266785E-1,9.772613374E0
1.603774479E1,-9.745184784E0,6.571334839E-2,8.011340332E-1,9.778280036E0
1.604771479E1,-9.744436340E0,6.047424316E-2,7.743397522E-1,9.775341364E0
1.605768479E1,-9.733808441E0,4.340972900E-2,7.921527100E-1,9.766085044E0
1.606765479E1,-9.737400970E0,4.430786133E-2,7.915539551E-1,9.769621206E0
1.607762479E1,-9.738598480E0,5.194198608E-2,7.834707642E-1,9.770200856E0
1.608759479E1,-9.727970581E0,3.772155762E-2,7.831713867E-1,9.759518019E0
1.609756479E1,-9.724078674E0,4.730163574E-2,7.908055115E-1,9.756296268E0
1.610753479E1,-9.733808441E0,3.817062378E-2,7.887098694E-1,9.765784506E0
1.611750479E1,-9.736502838E0,3.847000122E-2,8.165519714E-1,9.770758649E0
1.612747479E1,-9.734856262E0,6.256988525E-2,7.932005310E-1,9.767318389E0
1.613744479E1,-9.739197235E0,6.062393188E-2,7.768844604E-1,9.770321771E0
1.614741479E1,-9.730515289E0,5.059478760E-2,7.702981567E-1,9.761088406E0
1.615738479E1,-9.748328247E0,5.463638306E-2,7.807763672E-1,9.779698384E0
1.616735479E1,-9.738748169E0,7.334747314E-2,7.896080017E-1,9.770981350E0
1.617732379E1,-9.734706573E0,4.715194702E-2,8.039781189E-1,9.767963769E0
1.618729379E1,-9.748028870E0,4.296066284E-2,7.973918152E-1,9.780682296E0
1.619726479E1,-9.740245056E0,5.224136353E-2,7.608677673E-1,9.770057455E0
1.620723479E1,-9.732910309E0,4.670288086E-2,7.686515808E-1,9.763326764E0
1.621720579E1,-9.739346924E0,5.972579956E-2,7.725434875E-1,9.770121244E0
1.622717679E1,-9.738748169E0,4.805007935E-2,7.830216980E-1,9.770294145E0
1.623714579E1,-9.735604706E0,4.490661621E-2,8.170010376E-1,9.769928674E0
1.624711579E1,-9.727820892E0,4.595443726E-2,8.107141113E-1,9.761652959E0
1.625708579E1,-9.729467468E0,3.592529297E-2,7.876620483E-1,9.761364625E0
1.626705579E1,-9.743687897E0,4.146377563E-2,7.897576904E-1,9.775729655E0
1.627702579E1,-9.728868713E0,5.239105225E-2,7.698490906E-1,9.759421032E0
1.628699579E1,-9.721084900E0,5.388793945E-2,7.699987793E-1,9.751681581E0
1.629696679E1,-9.737400970E0,4.954696655E-2,7.762857056E-1,9.768421165E0
1.630693679E1,-9.735305328E0,5.792953491E-2,7.899073792E-1,9.767470468E0
1.631690679E1,-9.727072449E0,5.763015747E-2,7.933502197E-1,9.759542214E0
1.632687779E1,-9.717941437E0,6.586303711E-2,8.065228271E-1,9.751574374E0
