"Time (s)","Acceleration x (m/s^2)","Acceleration y (m/s^2)","Acceleration z (m/s^2)","Absolute acceleration (m/s^2)"
3.027291677E-3,-2.195933533E-1,5.987548828E-3,1.006252487E1,1.006492245E1
1.301329167E-2,-2.112107849E-1,1.736389160E-2,9.915829926E0,9.918094303E0
2.299929167E-2,-1.742376709E-1,9.729766846E-3,9.804012451E0,9.805565439E0
3.298529168E-2,-1.212478638E-1,-1.362167358E-2,9.474248199E0,9.475033801E0
4.297229167E-2,-1.257385254E-1,2.125579834E-2,9.458830261E0,9.459689841E0
5.295829166E-2,-1.435514832E-1,3.742218018E-3,9.835297394E0,9.836345656E0
6.294429167E-2,-1.585203552E-1,2.080673218E-2,9.926906891E0,9.928194299E0
7.293029167E-2,-1.727407837E-1,3.008743286E-2,9.830806732E0,9.832370296E0
8.291629168E-2,-1.672023010E-1,1.047821045E-3,9.839788055E0,9.841208599E0
9.290229167E-2,-1.440005493E-1,1.332229614E-2,9.633666687E0,9.634752071E0
1.028882917E-1,-1.486408997E-1,1.242416382E-2,9.625882874E0,9.627038463E0
1.128752917E-1,-1.576222229E-1,-3.592529297E-3,9.822274475E0,9.823539766E0
1.228612917E-1,-1.610650635E-1,2.035766602E-2,9.906998291E0,9.908328392E0
1.328472917E-1,-1.547781372E-1,-4.640350342E-3,9.832602997E0,9.833822222E0
1.428332917E-1,-1.483415222E-1,-5.688171387E-3,9.741741943E0,9.742872967E0
1.528192917E-1,-1.327738953E-1,2.484832764E-2,9.601184235E0,9.602134401E0
1.628052917E-1,-1.550775146E-1,4.640350342E-3,9.697733459E0,9.698974421E0
1.727912917E-1,-1.981878662E-1,-4.041595459E-3,1.002779709E1,1.002975619E1
1.827782917E-1,-1.543290710E-1,-1.496887207E-3,9.969119110E0,9.970313713E0
1.927642917E-1,-1.255888367E-1,1.481918335E-2,9.756112061E0,9.756931623E0
2.027502917E-1,-1.504371643E-1,1.916015625E-2,9.738149414E0,9.739330186E0
2.127362917E-1,-1.356179810E-1,-2.844085693E-3,9.729617157E0,9.730562694E0
2.227222917E-1,-1.279838562E-1,-4.790039062E-3,9.725575562E0,9.726418807E0
2.327082917E-1,-1.344204712E-1,-1.646575928E-3,9.859996033E0,9.860912399E0
2.426942917E-1,-1.736389160E-1,-1.646575928E-2,1.007180557E1,1.007331569E1
2.526812917E-1,-1.493893433E-1,-1.496887207E-2,9.942324829E0,9.943458365E0
2.626672917E-1,-1.471440125E-1,-7.634124756E-3,9.744885406E0,9.745999242E0
2.726532917E-1,-1.172062683E-1,2.844085693E-3,9.727970581E0,9.728677044E0
2.826392917E-1,-9.265731812E-2,1.496887207E-3,9.577683105E0,9.578131409E0
2.926252917E-1,-1.067280579E-1,4.640350342E-3,9.530680847E0,9.531279548E0
3.026112917E-1,-9.819580078E-2,1.017883301E-2,9.535770264E0,9.536281274E0
3.125972917E-1,-9.595046997E-2,1.047821045E-2,9.505832520E0,9.506322537E0
3.225842917E-1,-1.669029236E-1,-2.110610962E-2,9.997709656E0,9.999124982E0
3.325702917E-1,-1.574725342E-1,-2.993774414E-4,1.001582199E1,1.001705984E1
3.425562917E-1,-1.335223389E-1,-1.766326904E-2,9.818681946E0,9.819605662E0
3.525422917E-1,-1.080752563E-1,-2.335144043E-2,9.714199219E0,9.714828460E0
3.625282917E-1,-1.010398865E-1,-2.350112915E-2,9.666747894E0,9.667304496E0
3.725142917E-1,-1.284329224E-1,1.796264648E-3,9.683513031E0,9.684364866E0
3.825002917E-1,-1.368154907E-1,-2.005828857E-2,9.785451050E0,9.786428003E0
3.924872917E-1,-1.550775146E-1,-2.859054565E-2,9.941875763E0,9.943126276E0
4.024732917E-1,-1.414558411E-1,-2.469863892E-2,9.878407745E0,9.879451369E0
4.124592917E-1,-1.428030396E-1,-6.137237549E-3,9.684860229E0,9.685914930E0
4.224452917E-1,-1.239422607E-1,-1.811233521E-2,9.679621124E0,9.680431543E0
4.324312917E-1,-1.254391479E-1,-1.422042847E-2,9.756261749E0,9.757078483E0
4.424172917E-1,-1.513352966E-1,-2.275268555E-2,9.828711090E0,9.829902428E0
4.524032917E-1,-1.438508606E-1,-1.496887207E-2,9.858948212E0,9.860008975E0
4.623902917E-1,-1.285826111E-1,-2.844085693E-2,9.784852295E0,9.785738439E0
4.723762917E-1,-1.125659180E-1,-1.092727661E-2,9.699529724E0,9.700189037E0
4.823622917E-1,-1.243913269E-1,1.646575928E-3,9.718989258E0,9.719785394E0
4.923482917E-1,-1.396595764E-1,-6.586303711E-3,9.828262024E0,9.829256462E0
5.023342917E-1,-1.377136230E-1,-1.886077881E-2,9.859696655E0,9.860676392E0
5.123202917E-1,-1.216969299E-1,-2.245330811E-2,9.804012451E0,9.804793442E0
5.223062917E-1,-1.405577087E-1,-2.694396973E-2,9.725276184E0,9.726329179E0
5.322932917E-1,-1.242416382E-1,-2.514770508E-2,9.708660736E0,9.709488230E0
5.422792917E-1,-1.413061523E-1,-2.155517578E-2,9.752220154E0,9.753267657E0
5.522652917E-1,-1.428030396E-1,-4.490661621E-4,9.809401245E0,9.810440647E0
5.622512917E-1,-1.270857239E-1,-0.000000000E0,9.846973114E0,9.847793168E0
5.722372917E-1,-1.234931946E-1,2.544708252E-3,9.807904358E0,9.808682120E0
5.822241667E-1,-1.387614441E-1,-9.580078125E-3,9.739496613E0,9.740489761E0
5.922101667E-1,-1.248403931E-1,-1.347198486E-3,9.711355133E0,9.712157611E0
6.021971667E-1,-1.311273193E-1,-3.143463135E-3,9.765093384E0,9.765974250E0
6.121831667E-1,-1.368154907E-1,-1.601669312E-2,9.828411713E0,9.829376980E0
6.221691667E-1,-1.336720276E-1,-1.945953369E-2,9.825268250E0,9.826196775E0
6.321551667E-1,-1.323248291E-1,-7.783813477E-3,9.782756653E0,9.783654643E0
6.421411667E-1,-1.335223389E-1,-3.143463135E-3,9.757010193E0,9.757924267E0
6.521271667E-1,-1.269360352E-1,2.095642090E-3,9.757459259E0,9.758285113E0
6.621131667E-1,-1.317260742E-1,1.197509766E-3,9.780511322E0,9.781398413E0
6.721001667E-1,-1.390608215E-1,-2.020797729E-2,9.797126770E0,9.798134477E0
6.820861667E-1,-1.243913269E-1,-1.377136230E-2,9.787247314E0,9.788047448E0
6.920721667E-1,-1.308279419E-1,-1.032852173E-2,9.776918793E0,9.777799533E0
7.020581667E-1,-1.383123779E-1,-1.017883301E-2,9.764644318E0,9.765629144E0
7.120441667E-1,-1.273851013E-1,-1.616638184E-2,9.791139221E0,9.791981187E0
7.220301667E-1,-1.273851013E-1,-6.885681152E-3,9.785750427E0,9.786581926E0
7.320161667E-1,-1.276844788E-1,-3.742218018E-3,9.792486420E0,9.793319540E0
7.420031667E-1,-1.390608215E-1,-4.790039062E-3,9.779613190E0,9.780602998E0
7.519891667E-1,-1.115180969E-1,-1.422042847E-2,9.761800232E0,9.762447556E0
7.619751667E-1,-1.127156067E-1,-2.484832764E-2,9.775870972E0,9.776552332E0
7.719611667E-1,-1.362167358E-1,-8.681945801E-3,9.793234863E0,9.794186003E0
7.819471667E-1,-1.315763855E-1,-1.856140137E-2,9.785750427E0,9.786652558E0
7.919331667E-1,-1.371148682E-1,-1.856140137E-2,9.779762878E0,9.780741637E0
8.019191667E-1,-1.362167358E-1,-2.395019531E-2,9.765542450E0,9.766521794E0
8.119061667E-1,-1.287322998E-1,-2.814147949E-2,9.769733734E0,9.770622354E0
8.218921667E-1,-1.363664246E-1,-2.933898926E-2,9.804611206E0,9.805603372E0
8.318781667E-1,-1.398092651E-1,-1.047821045E-2,9.807455292E0,9.808457357E0
8.418641667E-1,-1.420545959E-1,-5.388793945E-3,9.790390778E0,9.791422783E0
8.518501667E-1,-1.216969299E-1,-3.592529297E-3,9.760752411E0,9.761511700E0
8.618361667E-1,-1.335223389E-1,-1.886077881E-2,9.765542450E0,9.766473431E0
8.718221667E-1,-1.228944397E-1,-2.095642090E-2,9.765093384E0,9.765889156E0
8.818091667E-1,-1.356179810E-1,-2.125579834E-2,9.780661011E0,9.781624295E0
8.917951667E-1,-1.299298096E-1,-9.131011963E-3,9.805659027E0,9.806524057E0
9.017811667E-1,-1.285826111E-1,-1.017883301E-2,9.798174591E0,9.799023544E0
9.117671667E-1,-1.130149841E-1,-5.089416504E-3,9.760453033E0,9.761108631E0
9.217531667E-1,-1.199006653E-1,-8.083190918E-3,9.751022644E0,9.751763128E0
9.317391667E-1,-1.393601990E-1,-7.334747314E-3,9.765991516E0,9.766988551E0
9.417251667E-1,-1.113684082E-1,-1.975891113E-2,9.790091400E0,9.790744760E0
9.517121667E-1,-1.329235840E-1,-9.580078125E-3,9.800719299E0,9.801625337E0
9.616981667E-1,-1.517843628E-1,-4.490661621E-3,9.795480194E0,9.796657128E0
9.716841667E-1,-1.234931946E-1,-2.170486450E-2,9.781110077E0,9.781913719E0
9.816701667E-1,-1.354682922E-1,-7.783813477E-3,9.761051788E0,9.761994891E0
9.916561667E-1,-1.264869690E-1,-7.933502197E-3,9.775272217E0,9.776093740E0
1.001642167E0,-1.294807434E-1,-1.571731567E-2,9.781110077E0,9.781979689E0
1.011628167E0,-1.255888367E-1,-4.640350342E-3,9.777218170E0,9.778025835E0
1.021615167E0,-1.196012878E-1,-1.541793823E-2,9.782906342E0,9.783649558E0
1.031601167E0,-1.314266968E-1,-1.002914429E-2,9.767338715E0,9.768228044E0
1.041587167E0,-1.417552185E-1,-5.388793945E-3,9.772877197E0,9.773906706E0
1.051573167E0,-1.323248291E-1,-1.047821045E-2,9.791588287E0,9.792487980E0
1.061559167E0,-1.285826111E-1,-2.155517578E-2,9.776020660E0,9.776890000E0
1.071545167E0,-1.317260742E-1,-1.466949463E-2,9.772278442E0,9.773177217E0
1.081531167E0,-1.083746338E-1,-2.963836670E-2,9.765392761E0,9.766039078E0
1.091518167E0,-1.303788757E-1,-1.541793823E-2,9.764045563E0,9.764928167E0
1.101504167E0,-1.392105103E-1,-1.242416382E-2,9.790540466E0,9.791538007E0
1.111490167E0,-1.315763855E-1,-2.664459229E-2,9.785001984E0,9.785922854E0
1.121476167E0,-1.360670471E-1,-1.930984497E-2,9.776320038E0,9.777285952E0
1.131462167E0,-1.127156067E-1,-1.347198486E-2,9.777517548E0,9.778176502E0
1.141448167E0,-1.209484863E-1,-8.083190918E-3,9.775272217E0,9.776023772E0
1.151434167E0,-1.142124939E-1,-1.975891113E-2,9.767638092E0,9.768325793E0
1.161421167E0,-1.306782532E-1,-1.377136230E-2,9.783205719E0,9.784088133E0
1.171407167E0,-1.146615601E-1,-1.541793823E-2,9.793983307E0,9.794666610E0
1.181393167E0,-1.302291870E-1,-8.083190918E-3,9.792935486E0,9.793804695E0
1.191379167E0,-1.354682922E-1,3.293151855E-3,9.751022644E0,9.751964167E0
1.201365167E0,-1.257385254E-1,-9.580078125E-3,9.750872955E0,9.751688333E0
1.211351167E0,-1.230441284E-1,-1.661544800E-2,9.775421906E0,9.776210378E0
1.221337167E0,-1.218466187E-1,-9.131011963E-3,9.781409454E0,9.782172606E0
1.231324167E0,-1.351689148E-1,-1.347198486E-2,9.784103851E0,9.785046771E0
1.241310167E0,-1.333726501E-1,8.981323242E-3,9.790390778E0,9.791303310E0
1.251296167E0,-1.260379028E-1,1.496887207E-4,9.771080933E0,9.771893786E0
1.261282167E0,-1.094224548E-1,-2.874023438E-2,9.777367859E0,9.778022373E0
1.271268167E0,-1.357676697E-1,-1.481918335E-2,9.775571594E0,9.776525582E0
1.281254167E0,-1.151106262E-1,-1.841171265E-2,9.762548676E0,9.763244650E0
1.291240167E0,-1.281335449E-1,-1.871109009E-2,9.777667236E0,9.778524679E0
1.301227167E0,-1.242416382E-1,-1.062789917E-2,9.782008209E0,9.782802949E0
1.311213167E0,-1.273851013E-1,2.993774414E-4,9.771230621E0,9.772060935E0
1.321199167E0,-1.442999268E-1,-1.347198486E-2,9.787995758E0,9.789068644E0
1.331185167E0,-1.356179810E-1,-1.916015625E-2,9.772877197E0,9.773836916E0
1.341171167E0,-1.363664246E-1,-2.275268555E-2,9.775571594E0,9.776549160E0
1.351157167E0,-1.203497314E-1,-1.466949463E-2,9.755513306E0,9.756266658E0
1.361143167E0,-1.285826111E-1,-2.365081787E-2,9.767189026E0,9.768064000E0
1.371129167E0,-1.393601990E-1,-1.826202393E-2,9.797575836E0,9.798583930E0
1.381116167E0,-1.321751404E-1,-2.395019531E-2,9.815388794E0,9.816307914E0
1.391102167E0,-1.216969299E-1,-7.185058594E-3,9.806108093E0,9.806865845E0
1.401088167E0,-1.305285645E-1,-7.035369873E-3,9.776020660E0,9.776894556E0
1.411074167E0,-1.281335449E-1,-2.365081787E-2,9.770631866E0,9.771500634E0
1.421060167E0,-1.288819885E-1,-2.185455322E-2,9.767338715E0,9.768213437E0
1.431046167E0,-1.360670471E-1,-1.616638184E-2,9.779912567E0,9.780872426E0
1.441032167E0,-1.404080200E-1,-1.466949463E-2,9.807604980E0,9.808620956E0
1.451019167E0,-1.297801208E-1,-3.173400879E-2,9.791887665E0,9.792799087E0
1.461005167E0,-1.339714050E-1,-4.490661621E-3,9.780960388E0,9.781878890E0
1.470991167E0,-1.136137390E-1,-2.544708252E-3,9.774224396E0,9.774885017E0
1.480977167E0,-1.145118713E-1,-2.275268555E-2,9.748028870E0,9.748727994E0
1.490963167E0,-1.363664246E-1,-1.017883301E-2,9.764045563E0,9.765003080E0
1.500949167E0,-1.290316772E-1,-8.981323242E-4,9.776320038E0,9.777171547E0
1.510935167E0,-1.348695374E-1,-5.987548828E-3,9.799222412E0,9.800152322E0
1.520922167E0,-1.341210938E-1,-5.538482666E-3,9.794582062E0,9.795501871E0
1.530908167E0,-1.372645569E-1,-9.280700684E-3,9.791737976E0,9.792704442E0
1.540894167E0,-1.312770081E-1,-6.735992432E-3,9.764794006E0,9.765678728E0
1.550880167E0,-1.276844788E-1,-2.155517578E-2,9.759854279E0,9.760713268E0
1.560866167E0,-1.216969299E-1,-1.167572021E-2,9.767039337E0,9.767804455E0
1.570852167E0,-1.368154907E-1,-2.469863892E-2,9.797575836E0,9.798562179E0
1.580836667E0,-1.202000427E-1,-9.280700684E-3,9.802515564E0,9.803256886E0
1.590822667E0,-1.261875916E-1,-7.484436035E-3,9.784702606E0,9.785519118E0
1.600809667E0,-1.333726501E-1,-2.020797729E-2,9.769733734E0,9.770664965E0
1.610795667E0,-1.281335449E-1,-1.796264648E-2,9.748927002E0,9.749785564E0
1.620781667E0,-1.234931946E-1,-1.886077881E-2,9.761500854E0,9.762300202E0
1.630767667E0,-1.234931946E-1,-1.616638184E-2,9.762848053E0,9.763642457E0
1.640753667E0,-1.249900818E-1,-2.409988403E-2,9.793534241E0,9.794361452E0
1.650739667E0,-1.125659180E-1,-6.885681152E-3,9.795330505E0,9.795979696E0
1.660725667E0,-1.297801208E-1,-8.981323242E-3,9.790839844E0,9.791704060E0
1.670712667E0,-1.285826111E-1,-3.143463135E-3,9.757908325E0,9.758755979E0
1.680698667E0,-1.100212097E-1,-2.993774414E-2,9.758656769E0,9.759322869E0
1.690684667E0,-1.252894592E-1,-1.930984497E-2,9.768985291E0,9.769807773E0
1.700670667E0,-1.267863464E-1,-1.182540894E-2,9.786199493E0,9.787027901E0
1.710656667E0,-1.213975525E-1,-2.754272461E-2,9.802814941E0,9.803605293E0
1.720642667E0,-1.251397705E-1,-5.837860107E-3,9.794132996E0,9.794934159E0
1.730628667E0,-1.270857239E-1,-2.694396973E-3,9.797725525E0,9.798550071E0
1.740615667E0,-1.154100037E-1,-2.978805542E-2,9.785301361E0,9.786027260E0
1.750601667E0,-1.221459961E-1,-2.350112915E-2,9.761351166E0,9.762143644E0
1.760587667E0,-1.356179810E-1,-2.619552612E-2,9.742640076E0,9.743619147E0
1.770573667E0,-1.369651794E-1,3.891906738E-3,9.766290894E0,9.767252041E0
1.780559667E0,-1.272354126E-1,-1.871109009E-2,9.787546692E0,9.788391553E0
1.790545667E0,-1.194515991E-1,-2.305206299E-2,9.789792023E0,9.790547887E0
1.800531667E0,-1.294807434E-1,-1.152603149E-2,9.791438599E0,9.792301463E0
1.810518667E0,-1.368154907E-1,-2.155517578E-2,9.789193268E0,9.790173029E0
1.820504667E0,-1.317260742E-1,-1.796264648E-2,9.771380310E0,9.772284665E0
1.830490667E0,-1.110690308E-1,-9.430389404E-3,9.761051788E0,9.761688239E0
1.840476667E0,-1.297801208E-1,-1.571731567E-2,9.765692139E0,9.766567097E0
1.850462667E0,-1.261875916E-1,-2.215393066E-2,9.789642334E0,9.790480638E0
1.860448667E0,-1.270857239E-1,-1.152603149E-2,9.805659027E0,9.806489310E0
1.870434667E0,-1.170565796E-1,-3.113525391E-2,9.793384552E0,9.794133582E0
1.880420667E0,-1.282832336E-1,-2.065704346E-2,9.773326263E0,9.774189969E0
1.890407667E0,-1.390608215E-1,-6.436614990E-3,9.775571594E0,9.776562757E0
1.900393667E0,-1.225950623E-1,-1.511856079E-2,9.760902100E0,9.761683662E0
1.910379667E0,-1.341210938E-1,1.646575928E-3,9.779613190E0,9.780532977E0
1.920365667E0,-1.270857239E-1,-1.242416382E-2,9.787247314E0,9.788080258E0
1.930351667E0,-1.188528442E-1,-2.589614868E-2,9.783505096E0,9.784261269E0
1.940337667E0,-1.332229614E-1,-1.047821045E-3,9.785001984E0,9.785908914E0
1.950323667E0,-1.236428833E-1,-1.437011719E-2,9.780062256E0,9.780854349E0
1.960310667E0,-1.300794983E-1,-1.541793823E-2,9.784253540E0,9.785130338E0
1.970296667E0,-1.332229614E-1,-7.634124756E-3,9.785301361E0,9.786211185E0
1.980282667E0,-1.323248291E-1,-7.783813477E-3,9.765392761E0,9.766292348E0
1.990268667E0,-1.218466187E-1,-1.676513672E-2,9.768835602E0,9.769609853E0
2.000254667E0,-1.377136230E-1,-2.874023438E-2,9.771679688E0,9.772692309E0
2.010240667E0,-1.255888367E-1,-5.239105225E-3,9.780062256E0,9.780869989E0
2.020226667E0,-1.471440125E-1,-1.916015625E-2,9.787546692E0,9.788671448E0
2.030212667E0,-1.342707825E-1,-1.302291870E-2,9.794731750E0,9.795660687E0
2.040199667E0,-1.276844788E-1,-2.110610962E-2,9.770482178E0,9.771339252E0
2.050185667E0,-1.314266968E-1,-4.640350342E-3,9.776320038E0,9.777204508E0
2.060171667E0,-1.302291870E-1,-1.930984497E-2,9.751621399E0,9.752510057E0
2.070157667E0,-1.306782532E-1,-5.388793945E-3,9.774523773E0,9.775398756E0
2.080143667E0,-1.282832336E-1,-2.185455322E-2,9.789941711E0,9.790806551E0
2.090129667E0,-1.309776306E-1,-1.287322998E-2,9.803114319E0,9.803997716E0
2.100115667E0,-1.399589539E-1,-9.131011963E-3,9.802066498E0,9.803069902E0
2.110102667E0,-1.288819885E-1,2.245330811E-3,9.764644318E0,9.765495085E0
2.120088667E0,-1.158590698E-1,-2.559677124E-2,9.765093384E0,9.765814217E0
2.130074667E0,-1.368154907E-1,-3.562591553E-2,9.777068481E0,9.778090600E0
2.140060667E0,-1.248403931E-1,-1.616638184E-2,9.761500854E0,9.762312503E0
2.150046667E0,-1.278341675E-1,-1.945953369E-2,9.775571594E0,9.776426762E0
2.160032667E0,-1.261875916E-1,-1.392105103E-2,9.784403229E0,9.785226806E0
2.170018667E0,-1.282832336E-1,-1.257385254E-2,9.785001984E0,9.785850934E0
2.180004667E0,-1.419049072E-1,-1.646575928E-3,9.785151672E0,9.786180714E0
2.189991667E0,-1.374142456E-1,-0.000000000E0,9.789941711E0,9.790906056E0
2.199977667E0,-1.239422607E-1,-1.272354126E-2,9.784852295E0,9.785645508E0
2.209963667E0,-1.279838562E-1,-2.709365845E-2,9.772577820E0,9.773453391E0
2.219949667E0,-1.194515991E-1,-1.721420288E-2,9.759105835E0,9.759852033E0
2.229935667E0,-1.188528442E-1,-9.131011963E-3,9.796677704E0,9.797402891E0
2.239921667E0,-1.185534668E-1,-1.092727661E-2,9.813742218E0,9.814464359E0
2.249907667E0,-1.384620667E-1,-1.407073975E-2,9.794282684E0,9.795271463E0
2.259894667E0,-1.404080200E-1,-1.257385254E-2,9.734706573E0,9.735727224E0
2.269880667E0,-1.375639343E-1,-1.182540894E-2,9.716893616E0,9.717874521E0
2.279866667E0,-1.136137390E-1,-1.107696533E-2,9.764494629E0,9.765161859E0
2.289852667E0,-1.175056458E-1,3.293151855E-3,9.827363892E0,9.828066925E0
2.299838667E0,-1.288819885E-1,7.484436035E-4,9.861941986E0,9.862784134E0
2.309824667E0,-1.425036621E-1,-2.439926147E-2,9.817035370E0,9.818099922E0
2.319810667E0,-1.199006653E-1,-1.242416382E-2,9.739496613E0,9.740242543E0
2.329796667E0,-1.309776306E-1,-1.077758789E-2,9.715995483E0,9.716884250E0
2.339783667E0,-1.128652954E-1,-3.053649902E-2,9.735155640E0,9.735857763E0
2.349769667E0,-1.288819885E-1,-1.152603149E-2,9.822573853E0,9.823426108E0
2.359755667E0,-1.423539734E-1,-1.631607056E-2,9.867031403E0,9.868071725E0
2.369741667E0,-1.239422607E-1,-1.137634277E-2,9.819280701E0,9.820069480E0
2.379727667E0,-1.327738953E-1,-1.437011719E-2,9.738149414E0,9.739065120E0
2.389713667E0,-1.222956848E-1,-1.362167358E-2,9.711055756E0,9.711835340E0
2.399699667E0,-1.246907043E-1,-9.729766846E-3,9.765841827E0,9.766642670E0
2.409686667E0,-1.288819885E-1,-2.439926147E-2,9.817035370E0,9.817911659E0
2.419672667E0,-1.401086426E-1,-2.469863892E-2,9.816885681E0,9.817916527E0
2.429658667E0,-1.273851013E-1,-2.365081787E-2,9.795929260E0,9.796786024E0
2.439644667E0,-1.209484863E-1,-2.499801636E-2,9.756860504E0,9.757642150E0
2.449630667E0,-1.158590698E-1,-1.002914429E-2,9.768087158E0,9.768779383E0
2.459616667E0,-1.260379028E-1,-1.676513672E-2,9.779762878E0,9.780589378E0
2.469602667E0,-1.279838562E-1,-1.062789917E-2,9.783804474E0,9.784647301E0
2.479588667E0,-1.407073975E-1,-1.871109009E-2,9.791588287E0,9.792617110E0
2.489575667E0,-1.378633118E-1,-2.005828857E-2,9.778864746E0,9.779857072E0
2.499561667E0,-1.321751404E-1,-1.377136230E-2,9.754914551E0,9.755819689E0
2.509547667E0,-1.209484863E-1,-1.047821045E-2,9.768536224E0,9.769290573E0
2.519533667E0,-1.136137390E-1,-5.388793945E-3,9.800270233E0,9.800930250E0
2.529519667E0,-1.263372803E-1,-8.981323242E-3,9.796977081E0,9.797795757E0
2.539505667E0,-1.221459961E-1,3.293151855E-3,9.767338715E0,9.768102992E0
2.549491667E0,-1.410067749E-1,-1.302291870E-2,9.755513306E0,9.756541004E0
2.559477667E0,-1.407073975E-1,-3.502716064E-2,9.769733734E0,9.770809726E0
2.569464667E0,-1.357676697E-1,-7.334747314E-3,9.806108093E0,9.807050657E0
2.579450667E0,-1.398092651E-1,-1.392105103E-2,9.795330505E0,9.796338098E0
2.589436958E0,-1.281335449E-1,-7.484436035E-4,9.784253540E0,9.785092544E0
2.599422958E0,-1.158590698E-1,-1.332229614E-2,9.789193268E0,9.789887928E0
2.609408958E0,-1.194515991E-1,-1.047821045E-3,9.750723267E0,9.751454969E0
2.619394958E0,-1.252894592E-1,-9.879455566E-3,9.748927002E0,9.749737060E0
2.629380958E0,-1.176553345E-1,-1.960922241E-2,9.783654785E0,9.784381853E0
2.639366958E0,-1.267863464E-1,-1.601669312E-2,9.808952179E0,9.809784613E0
2.649353958E0,-1.425036621E-1,-1.481918335E-2,9.789043579E0,9.790091986E0
2.659339958E0,-1.252894592E-1,-1.826202393E-2,9.757010193E0,9.757831668E0
2.669325958E0,-1.318757629E-1,-2.395019531E-2,9.762398987E0,9.763319047E0
2.679311958E0,-1.154100037E-1,-9.729766846E-3,9.783205719E0,9.783891265E0
2.689297958E0,-1.149609375E-1,-1.886077881E-2,9.793683929E0,9.794376788E0
2.699283958E0,-1.249900818E-1,-1.137634277E-2,9.797126770E0,9.797930643E0
2.709269958E0,-1.131646729E-1,-1.122665405E-2,9.784253540E0,9.784914390E0
2.719255958E0,-1.200503540E-1,-2.035766602E-2,9.766440582E0,9.767199607E0
2.729242958E0,-1.249900818E-1,-1.062789917E-2,9.753567352E0,9.754373971E0
2.739228958E0,-1.206491089E-1,-3.622467041E-2,9.764494629E0,9.765307153E0
2.749214958E0,-1.243913269E-1,-1.856140137E-2,9.791887665E0,9.792695327E0
2.759200958E0,-1.266366577E-1,-1.646575928E-2,9.803563385E0,9.804395086E0
2.769186958E0,-1.263372803E-1,-9.280700684E-3,9.790839844E0,9.791659312E0
2.779172958E0,-1.341210938E-1,-1.826202393E-2,9.754315796E0,9.755254923E0
2.789158958E0,-1.333726501E-1,-1.302291870E-2,9.746981049E0,9.747902206E0
2.799145958E0,-1.386117554E-1,-2.245330811E-3,9.764045563E0,9.765029647E0
2.809131958E0,-1.429527283E-1,-1.017883301E-2,9.792336731E0,9.793385408E0
2.819117958E0,-1.314266968E-1,-2.350112915E-2,9.808203735E0,9.809112386E0
2.829103958E0,-1.297801208E-1,-2.664459229E-2,9.799072723E0,9.799968319E0
2.839089958E0,-1.285826111E-1,1.317260742E-2,9.787247314E0,9.788100786E0
2.849075958E0,-1.294807434E-1,-1.272354126E-2,9.767787781E0,9.768654221E0
2.859061958E0,-1.342707825E-1,-1.332229614E-2,9.759405212E0,9.760337916E0
2.869047958E0,-1.474433899E-1,-3.068618774E-2,9.779164124E0,9.780323724E0
2.879034958E0,-1.350192261E-1,-1.137634277E-2,9.785900116E0,9.786838136E0
2.889020958E0,-1.329235840E-1,-1.317260742E-2,9.776619415E0,9.777531866E0
2.899006958E0,-1.324745178E-1,8.981323242E-4,9.780810699E0,9.781707839E0
2.908992958E0,-1.377136230E-1,-1.601669312E-2,9.762548676E0,9.763533081E0
2.918978958E0,-1.284329224E-1,-1.002914429E-2,9.772278442E0,9.773127522E0
2.928964958E0,-1.194515991E-1,-1.960922241E-2,9.772128754E0,9.772878470E0
2.938950958E0,-1.270857239E-1,-1.871109009E-2,9.783654785E0,9.784498037E0
2.948936958E0,-1.273851013E-1,-1.751358032E-2,9.792336731E0,9.793180910E0
2.958923958E0,-1.173559570E-1,-1.661544800E-2,9.784253540E0,9.784971427E0
2.968909958E0,-1.188528442E-1,-2.529739380E-2,9.764045563E0,9.764801673E0
2.978895958E0,-1.236428833E-1,-7.933502197E-3,9.769584045E0,9.770369641E0
2.988881958E0,-1.293310547E-1,-1.766326904E-2,9.778565369E0,9.779436547E0
2.998867958E0,-1.320254517E-1,-1.586700439E-2,9.783954163E0,9.784857768E0
3.008853958E0,-1.273851013E-1,-3.323089600E-2,9.767189026E0,9.768076204E0
3.018839958E0,-1.148112488E-1,-2.155517578E-2,9.761051788E0,9.761750779E0
3.028825958E0,-1.374142456E-1,-2.155517578E-2,9.775721283E0,9.776710792E0
3.038812958E0,-1.267863464E-1,-6.586303711E-3,9.778265991E0,9.779090139E0
3.048798958E0,-1.275347900E-1,-1.796264648E-2,9.779014435E0,9.779862529E0
3.058784958E0,-1.193019104E-1,-1.886077881E-2,9.780062256E0,9.780808065E0
3.068770958E0,-1.169068909E-1,-1.496887207E-2,9.776769104E0,9.777479501E0
3.078756958E0,-1.236428833E-1,-4.041595459E-3,9.755962372E0,9.756746676E0
3.088742958E0,-1.085243225E-1,-2.829116821E-2,9.768835602E0,9.769479358E0
3.098728958E0,-1.110690308E-1,-3.293151855E-2,9.771380310E0,9.772067027E0
3.108714958E0,-1.356179810E-1,-2.799179077E-2,9.781259766E0,9.782239947E0
3.118701958E0,-1.395098877E-1,-1.392105103E-2,9.779313812E0,9.780318780E0
3.128687958E0,-1.266366577E-1,1.646575928E-3,9.778715057E0,9.779535149E0
3.138673958E0,-1.267863464E-1,-3.592529297E-3,9.776020660E0,9.776843439E0
3.148659958E0,-1.222956848E-1,-4.191284180E-3,9.771829376E0,9.772595518E0
3.158645958E0,-1.360670471E-1,-1.975891113E-2,9.764344940E0,9.765312937E0
3.168631958E0,-1.329235840E-1,-2.125579834E-2,9.784403229E0,9.785329173E0
3.178617958E0,-1.224453735E-1,-2.484832764E-2,9.786049805E0,9.786847352E0
3.188603958E0,-1.257385254E-1,-2.439926147E-2,9.773475952E0,9.774315203E0
3.198590958E0,-1.142124939E-1,-2.454895020E-2,9.762249298E0,9.762948248E0
3.208576958E0,-1.154100037E-1,-1.257385254E-2,9.764045563E0,9.764735702E0
3.218562958E0,-1.181044006E-1,-7.634124756E-3,9.782457275E0,9.783173170E0
3.228548958E0,-1.124162292E-1,-1.496887207E-3,9.805659027E0,9.806303514E0
3.238534958E0,-1.273851013E-1,-1.571731567E-2,9.811796265E0,9.812635728E0
3.248520958E0,-1.444496155E-1,-1.272354126E-2,9.783355408E0,9.784430010E0
3.258506958E0,-1.148112488E-1,-1.975891113E-2,9.763596497E0,9.764291505E0
3.268492958E0,-1.209484863E-1,-3.173400879E-2,9.770931244E0,9.771731318E0
3.278479958E0,-1.149609375E-1,-2.200424194E-2,9.774523773E0,9.775224560E0
3.288465958E0,-1.169068909E-1,-1.466949463E-2,9.794432373E0,9.795141037E0
3.298451958E0,-1.206491089E-1,-2.005828857E-2,9.803713074E0,9.804475946E0
3.308437958E0,-1.264869690E-1,-4.340972900E-3,9.801767120E0,9.802584174E0
3.318423958E0,-1.311273193E-1,-8.532257080E-3,9.781559143E0,9.782441742E0
3.328409958E0,-1.432521057E-1,-2.514770508E-2,9.761051788E0,9.762135299E0
3.338395958E0,-1.287322998E-1,-1.167572021E-2,9.771529999E0,9.772384911E0
3.348381958E0,-1.273851013E-1,-7.334747314E-3,9.775421906E0,9.776254610E0
3.358368958E0,-1.204994202E-1,-1.167572021E-2,9.791887665E0,9.792636033E0
3.368354958E0,-1.173559570E-1,-1.377136230E-2,9.808054047E0,9.808765786E0
3.378340958E0,-1.318757629E-1,-1.302291870E-2,9.785600739E0,9.786497976E0
3.388326958E0,-1.285826111E-1,-1.571731567E-2,9.794881439E0,9.795737998E0
3.398312958E0,-1.278341675E-1,-3.891906738E-3,9.773925018E0,9.774761735E0
3.408298958E0,-1.347198486E-1,-1.751358032E-2,9.761650543E0,9.762595838E0
3.418284958E0,-1.264869690E-1,-1.916015625E-2,9.773475952E0,9.774313186E0
3.428270958E0,-1.303788757E-1,-2.993774414E-2,9.761650543E0,9.762567093E0
3.438256958E0,-1.362167358E-1,-1.496887207E-2,9.792636108E0,9.793594898E0
3.448243958E0,-1.231938171E-1,-3.068618774E-2,9.778415680E0,9.779239826E0
3.458229958E0,-1.172062683E-1,-9.729766846E-3,9.765841827E0,9.766549983E0
3.468215958E0,-1.187031555E-1,-7.634124756E-3,9.765991516E0,9.766715876E0
3.478201958E0,-1.134640503E-1,-1.137634277E-2,9.777068481E0,9.777733459E0
3.488187958E0,-1.291813660E-1,-2.784210205E-2,9.783804474E0,9.784696878E0
3.498173958E0,-1.338217163E-1,-2.125579834E-2,9.784103851E0,9.785042066E0
3.508159958E0,-1.336720276E-1,-9.879455566E-3,9.802964630E0,9.803880933E0
3.518145958E0,-1.204994202E-1,-3.173400879E-2,9.801018677E0,9.801810764E0
3.528132958E0,-1.278341675E-1,-2.140548706E-2,9.752519531E0,9.753380797E0
3.538118958E0,-1.169068909E-1,-1.107696533E-2,9.753866730E0,9.754573599E0
3.548104958E0,-1.146615601E-1,-6.885681152E-3,9.773026886E0,9.773701919E0
3.558090958E0,-1.210981750E-1,-1.302291870E-2,9.770332489E0,9.771091613E0
3.568076958E0,-1.354682922E-1,-1.646575928E-2,9.799521790E0,9.800471932E0
3.578062958E0,-1.246907043E-1,-1.511856079E-2,9.801617432E0,9.802422181E0
3.588048458E0,-1.157093811E-1,-1.856140137E-2,9.779912567E0,9.780614654E0
3.598034458E0,-1.193019104E-1,-3.802093506E-2,9.783355408E0,9.784156661E0
3.608021458E0,-1.203497314E-1,-8.382568359E-3,9.774074707E0,9.774819216E0
3.618007458E0,-1.181044006E-1,-1.062789917E-2,9.760003967E0,9.760724309E0
3.627993458E0,-1.125659180E-1,-1.062789917E-2,9.789342957E0,9.789995892E0
3.637979458E0,-1.182540894E-1,-2.544708252E-2,9.792785797E0,9.793532828E0
3.647965458E0,-1.300794983E-1,-2.634521484E-2,9.804760895E0,9.805659129E0
3.657951458E0,-1.344204712E-1,-5.987548828E-3,9.777218170E0,9.778143989E0
3.667937458E0,-1.109193420E-1,-2.290237427E-2,9.771679688E0,9.772336033E0
3.677923458E0,-1.248403931E-1,-1.721420288E-2,9.775571594E0,9.776383864E0
3.687910458E0,-1.246907043E-1,-1.227447510E-2,9.780960388E0,9.781762855E0
3.697896458E0,-1.125659180E-1,-1.047821045E-2,9.776918793E0,9.777572396E0
3.707882458E0,-1.207987976E-1,-1.167572021E-2,9.795180817E0,9.795932620E0
3.717868458E0,-1.130149841E-1,-1.362167358E-2,9.802515564E0,9.803176491E0
3.727854458E0,-1.365161133E-1,-1.002914429E-2,9.790690155E0,9.791646999E0
3.737840458E0,-1.366658020E-1,-2.110610962E-2,9.763596497E0,9.764575749E0
3.747826458E0,-1.215472412E-1,-2.245330811E-2,9.765841827E0,9.766624006E0
3.757812458E0,-1.151106262E-1,-2.829116821E-2,9.784103851E0,9.784821870E0
3.767798458E0,-1.182540894E-1,-1.496887207E-4,9.796378326E0,9.797092036E0
3.777785458E0,-1.309776306E-1,-1.047821045E-3,9.807006226E0,9.807880879E0
3.787771458E0,-1.269360352E-1,-8.382568359E-3,9.785451050E0,9.786277907E0
3.797757458E0,-1.293310547E-1,-1.451980591E-2,9.762548676E0,9.763416102E0
3.807743458E0,-1.278341675E-1,-1.242416382E-2,9.763746185E0,9.764590903E0
3.817729458E0,-1.278341675E-1,-1.496887207E-2,9.775870972E0,9.776718207E0
3.827715458E0,-1.275347900E-1,-6.436614990E-3,9.773925018E0,9.774759169E0
3.837701458E0,-1.302291870E-1,-3.442840576E-3,9.775571594E0,9.776439612E0
3.847687458E0,-1.318757629E-1,-9.131011963E-3,9.777068481E0,9.777962093E0
3.857674458E0,-1.363664246E-1,-1.616638184E-2,9.777667236E0,9.778631486E0
3.867660458E0,-1.083746338E-1,-3.562591553E-2,9.781110077E0,9.781775330E0
3.877646458E0,-1.326242065E-1,-4.041595459E-2,9.781708832E0,9.782691363E0
3.887632458E0,-1.369651794E-1,-1.856140137E-2,9.767638092E0,9.768615966E0
3.897618458E0,-1.272354126E-1,-1.916015625E-2,9.789492645E0,9.790338207E0
3.907604458E0,-1.182540894E-1,-1.930984497E-2,9.797575836E0,9.798308485E0
3.917590458E0,-1.225950623E-1,-4.191284180E-3,9.781559143E0,9.782328270E0
3.927576458E0,-1.073268127E-1,-1.197509766E-3,9.785750427E0,9.786339045E0
3.937562458E0,-1.393601990E-1,-1.616638184E-2,9.796528015E0,9.797532535E0
3.947549458E0,-1.359173584E-1,-3.577560425E-2,9.793085175E0,9.794093662E0
3.957535458E0,-1.380130005E-1,-8.532257080E-3,9.783056030E0,9.784033201E0
3.967521458E0,-1.264869690E-1,-6.885681152E-3,9.769284668E0,9.770105900E0
3.977507458E0,-1.170565796E-1,-1.451980591E-2,9.781259766E0,9.781970950E0
3.987493458E0,-1.308279419E-1,-2.918930054E-2,9.790989532E0,9.791907066E0
3.997479458E0,-1.228944397E-1,-2.380050659E-2,9.796827393E0,9.797627084E0
4.007465458E0,-1.197509766E-1,-1.766326904E-2,9.796677704E0,9.797425495E0
4.017451458E0,-1.297801208E-1,-3.457809448E-2,9.796977081E0,9.797897655E0
4.027438458E0,-1.207987976E-1,-3.532653809E-2,9.752369843E0,9.753181935E0
4.037424458E0,-9.235794067E-2,-1.287322998E-2,9.738598480E0,9.739044926E0
4.047410458E0,-1.302291870E-1,-3.442840576E-3,9.756561127E0,9.757430836E0
4.057396458E0,-1.384620667E-1,-1.392105103E-2,9.797725525E0,9.798713742E0
4.067382458E0,-1.351689148E-1,-8.831634521E-3,9.824070740E0,9.825004556E0
4.077368458E0,-1.218466187E-1,-7.035369873E-3,9.802964630E0,9.803724376E0
4.087354458E0,-1.210981750E-1,-1.047821045E-2,9.776918793E0,9.777674347E0
4.097340458E0,-1.291813660E-1,-3.173400879E-2,9.752669220E0,9.753576359E0
4.107326458E0,-1.273851013E-1,-4.296066284E-2,9.744885406E0,9.745812648E0
4.117313458E0,-1.315763855E-1,-3.667373657E-2,9.765991516E0,9.766946688E0
4.127299458E0,-1.335223389E-1,-1.197509766E-2,9.797126770E0,9.798043915E0
4.137285458E0,-1.197509766E-1,2.544708252E-3,9.832004242E0,9.832733810E0
4.147271458E0,-1.380130005E-1,-7.334747314E-3,9.831255798E0,9.832227213E0
4.157257458E0,-1.354682922E-1,-3.532653809E-2,9.752968597E0,9.753973349E0
4.167243458E0,-1.269360352E-1,-4.011657715E-2,9.710157623E0,9.711070135E0
4.177229458E0,-1.157093811E-1,-3.502716064E-2,9.726473694E0,9.727224994E0
4.187215458E0,-1.197509766E-1,-1.092727661E-2,9.779762878E0,9.780502117E0
4.197202458E0,-1.255888367E-1,-2.185455322E-2,9.838590546E0,9.839416350E0
4.207188458E0,-1.441502380E-1,-8.083190918E-3,9.855804749E0,9.856862172E0
4.217174458E0,-1.281335449E-1,-9.580078125E-3,9.804311829E0,9.805153768E0
4.227160458E0,-1.222956848E-1,-8.831634521E-3,9.727072449E0,9.727845222E0
4.237146458E0,-1.357676697E-1,-3.338058472E-2,9.697134705E0,9.698142534E0
4.247132458E0,-1.290316772E-1,-2.874023438E-2,9.757908325E0,9.758803721E0
4.257118458E0,-1.302291870E-1,-2.260299683E-2,9.834548950E0,9.835437133E0
4.267104458E0,-1.327738953E-1,-3.547622681E-2,9.850116577E0,9.851075274E0
4.277090458E0,-1.254391479E-1,-2.095642090E-2,9.792037354E0,9.792863202E0
4.287077458E0,-1.309776306E-1,1.197509766E-3,9.732760620E0,9.733641963E0
4.297063458E0,-1.118174744E-1,-1.751358032E-2,9.723779297E0,9.724437963E0
4.307049458E0,-1.315763855E-1,-2.859054565E-2,9.772278442E0,9.773206010E0
4.317035458E0,-1.516346741E-1,-1.916015625E-2,9.803264008E0,9.804455385E0
4.327021458E0,-1.366658020E-1,-1.616638184E-2,9.831405487E0,9.832368623E0
4.337007458E0,-1.320254517E-1,-2.589614868E-2,9.808353424E0,9.809276131E0
4.346993458E0,-1.200503540E-1,-1.646575928E-2,9.755962372E0,9.756714868E0
4.356979458E0,-1.112187195E-1,-1.407073975E-2,9.734407196E0,9.735052699E0
4.366965458E0,-1.281335449E-1,-1.721420288E-2,9.745035095E0,9.745892650E0
4.376952458E0,-1.290316772E-1,-5.089416504E-3,9.775571594E0,9.776424452E0
4.386938458E0,-1.366658020E-1,-1.975891113E-2,9.802515564E0,9.803488121E0
4.396924458E0,-1.493893433E-1,-2.035766602E-2,9.812993774E0,9.814151946E0
4.406910458E0,-1.342707825E-1,-3.442840576E-3,9.798174591E0,9.799095153E0
4.416896458E0,-1.368154907E-1,-5.388793945E-3,9.768985291E0,9.769944786E0
4.426882458E0,-1.194515991E-1,-2.035766602E-2,9.749974823E0,9.750727776E0
4.436868458E0,-1.173559570E-1,-1.616638184E-2,9.746531982E0,9.747251893E0
4.446854458E0,-1.133143616E-1,-6.885681152E-3,9.790989532E0,9.791647644E0
4.456840458E0,-1.425036621E-1,-2.230361938E-2,9.806407471E0,9.807468186E0
4.466827458E0,-1.396595764E-1,-3.293151855E-3,9.813592529E0,9.814586796E0
4.476813458E0,-1.381626892E-1,-5.388793945E-3,9.800270233E0,9.801245564E0
4.486799458E0,-1.254391479E-1,-3.293151855E-3,9.793983307E0,9.794787126E0
4.496785458E0,-1.050814819E-1,-7.484436035E-3,9.786498871E0,9.787065867E0
4.506771458E0,-1.137634277E-1,-2.020797729E-2,9.760303345E0,9.760987238E0
4.516757458E0,-1.359173584E-1,-1.721420288E-2,9.749675446E0,9.750637987E0
4.526743458E0,-1.350192261E-1,-2.529739380E-2,9.758656769E0,9.759623562E0
4.536729458E0,-1.442999268E-1,-2.814147949E-2,9.789193268E0,9.790297199E0
4.546716458E0,-1.335223389E-1,-1.676513672E-2,9.821825409E0,9.822747256E0
4.556702458E0,-1.188528442E-1,1.496887207E-4,9.839488678E0,9.840206475E0
4.566688458E0,-1.321751404E-1,1.197509766E-3,9.783355408E0,9.784248297E0
4.576674458E0,-1.154100037E-1,-1.272354126E-2,9.718839569E0,9.719533113E0
4.586660917E0,-1.181044006E-1,-3.128494263E-2,9.724228363E0,9.724995869E0
4.596646917E0,-1.294807434E-1,-2.559677124E-2,9.749525757E0,9.750419116E0
4.606632917E0,-1.360670471E-1,-1.496887207E-4,9.816137238E0,9.817080245E0
4.616618917E0,-1.257385254E-1,-1.451980591E-2,9.851463776E0,9.852276870E0
4.626604917E0,-1.151106262E-1,-2.844085693E-3,9.815388794E0,9.816064167E0
4.636591917E0,-1.167572021E-1,8.083190918E-3,9.744136963E0,9.744839800E0
4.646577917E0,-1.212478638E-1,-1.691482544E-2,9.726174316E0,9.726944741E0
4.656563917E0,-1.254391479E-1,-7.484436035E-3,9.745933228E0,9.746743326E0
4.666549917E0,-1.357676697E-1,-1.107696533E-2,9.812544708E0,9.813490165E0
4.676535917E0,-1.383123779E-1,-2.395019531E-2,9.823172607E0,9.824175487E0
4.686521917E0,-1.414558411E-1,-1.287322998E-2,9.813592529E0,9.814620411E0
4.696507917E0,-1.294807434E-1,-7.933502197E-3,9.757309570E0,9.758171871E0
4.706493917E0,-1.136137390E-1,-9.430389404E-3,9.749825134E0,9.750491637E0
4.716479917E0,-1.140628052E-1,-1.945953369E-3,9.762848053E0,9.763514542E0
4.726466917E0,-1.264869690E-1,-2.080673218E-2,9.807904358E0,9.808742007E0
4.736452917E0,-1.179547119E-1,-1.826202393E-2,9.815239105E0,9.815964828E0
4.746438917E0,-1.311273193E-1,-2.230361938E-2,9.790690155E0,9.791593616E0
4.756424917E0,-1.019380188E-1,-2.140548706E-2,9.753267975E0,9.753824160E0
4.766410917E0,-1.251397705E-1,-1.691482544E-2,9.754615173E0,9.755432500E0
4.776396917E0,-1.303788757E-1,-1.152603149E-2,9.780661011E0,9.781536756E0
4.786382917E0,-1.261875916E-1,-4.191284180E-3,9.814939728E0,9.815751766E0
4.796368917E0,-1.351689148E-1,-1.377136230E-2,9.809550934E0,9.810491823E0
4.806354917E0,-1.317260742E-1,-1.601669312E-2,9.804910583E0,9.805808475E0
4.816341917E0,-1.285826111E-1,-2.380050659E-2,9.773475952E0,9.774350727E0
4.826327917E0,-1.255888367E-1,-2.395019531E-2,9.730365601E0,9.731205521E0
4.836313917E0,-1.245410156E-1,-1.975891113E-2,9.768536224E0,9.769350073E0
4.846299917E0,-1.249900818E-1,-1.721420288E-2,9.793534241E0,9.794346929E0
4.856285917E0,-1.225950623E-1,-2.095642090E-2,9.795031128E0,9.795820717E0
4.866271917E0,-1.245410156E-1,-1.511856079E-2,9.790091400E0,9.790895192E0
4.876257917E0,-1.264869690E-1,-3.293151855E-3,9.786947937E0,9.787765819E0
4.886243917E0,-1.224453735E-1,5.538482666E-3,9.780511322E0,9.781279327E0
4.896229917E0,-1.207987976E-1,-1.930984497E-2,9.778864746E0,9.779629898E0
4.906216917E0,-1.347198486E-1,-1.347198486E-3,9.790690155E0,9.791617076E0
4.916202917E0,-1.267863464E-1,-9.879455566E-3,9.777667236E0,9.778494207E0
4.926188917E0,-1.202000427E-1,-2.484832764E-2,9.770033112E0,9.770804086E0
4.936174917E0,-1.199006653E-1,-8.083190918E-3,9.772877197E0,9.773616026E0
4.946160917E0,-1.405577087E-1,-1.437011719E-2,9.782157898E0,9.783178221E0
4.956146917E0,-1.248403931E-1,-1.796264648E-2,9.808203735E0,9.809014644E0
4.966132917E0,-1.267863464E-1,-1.871109009E-2,9.782157898E0,9.782997395E0
4.976118917E0,-1.413061523E-1,-1.407073975E-2,9.763895874E0,9.764928471E0
4.986104917E0,-1.225950623E-1,-1.945953369E-2,9.774374084E0,9.775162248E0
4.996091917E0,-1.242416382E-1,-2.245330811E-2,9.768087158E0,9.768903053E0
5.006077917E0,-1.341210938E-1,-2.589614868E-2,9.782606964E0,9.783560604E0
5.016063917E0,-1.219963074E-1,-5.089416504E-3,9.798024902E0,9.798785689E0
5.026049917E0,-1.258882141E-1,-8.981323242E-4,9.785151672E0,9.785961470E0
5.036035917E0,-1.246907043E-1,-1.407073975E-2,9.771829376E0,9.772635014E0
5.046021917E0,-1.312770081E-1,-9.879455566E-3,9.774074707E0,9.774961260E0
5.056007917E0,-1.276844788E-1,-6.885681152E-3,9.786947937E0,9.787783235E0
5.065993917E0,-1.306782532E-1,-9.280700684E-3,9.779014435E0,9.779891935E0
5.075979917E0,-1.353186035E-1,-2.050735474E-2,9.786498871E0,9.787455840E0
5.085965917E0,-1.175056458E-1,-6.885681152E-3,9.790839844E0,9.791547367E0
5.095952917E0,-1.326242065E-1,-2.275268555E-2,9.773475952E0,9.774402235E0
5.105938917E0,-1.191522217E-1,-1.631607056E-2,9.780810699E0,9.781550051E0
5.115924917E0,-1.190025330E-1,-4.939727783E-3,9.789193268E0,9.789917816E0
5.125910917E0,-1.348695374E-1,-4.340972900E-3,9.789342957E0,9.790272936E0
5.135896917E0,-1.234931946E-1,-1.451980591E-2,9.800120544E0,9.800909350E0
5.145882917E0,-1.197509766E-1,-6.735992432E-3,9.788744202E0,9.789478981E0
5.155868917E0,-1.276844788E-1,-8.532257080E-3,9.764344940E0,9.765183472E0
5.165854917E0,-1.369651794E-1,1.796264648E-3,9.752369843E0,9.753331750E0
5.175840917E0,-1.368154907E-1,-8.981323242E-3,9.736802216E0,9.737767533E0
5.185827917E0,-1.300794983E-1,-2.125579834E-2,9.768835602E0,9.769724740E0
5.195813917E0,-1.275347900E-1,-1.407073975E-2,9.785001984E0,9.785843189E0
5.205799917E0,-1.230441284E-1,-2.948867798E-2,9.797276459E0,9.798093460E0
5.215785917E0,-1.224453735E-1,-1.167572021E-2,9.801018677E0,9.801790464E0
5.225771917E0,-1.210981750E-1,1.496887207E-4,9.799521790E0,9.800270001E0
5.235757917E0,-1.273851013E-1,-2.424957275E-2,9.782307587E0,9.783167009E0
5.245743917E0,-1.218466187E-1,-1.227447510E-2,9.772727509E0,9.773494780E0
5.255729917E0,-1.404080200E-1,-2.200424194E-2,9.745633850E0,9.746670085E0
5.265715917E0,-1.282832336E-1,-1.362167358E-2,9.750872955E0,9.751726285E0
5.275702917E0,-1.333726501E-1,-3.442840576E-3,9.762848053E0,9.763759636E0
5.285688917E0,-1.219963074E-1,-2.395019531E-3,9.821975098E0,9.822733003E0
5.295674917E0,-1.278341675E-1,-1.347198486E-3,9.826016693E0,9.826848297E0
5.305660917E0,-1.181044006E-1,-2.200424194E-2,9.787397003E0,9.788134293E0
5.315646917E0,-1.251397705E-1,-1.152603149E-2,9.740694122E0,9.741504750E0
5.325632917E0,-1.285826111E-1,-1.257385254E-2,9.743837585E0,9.744694068E0
5.335618917E0,-1.332229614E-1,-2.035766602E-2,9.765542450E0,9.766472348E0
5.345604917E0,-1.399589539E-1,-1.407073975E-2,9.805958405E0,9.806967254E0
5.355590917E0,-1.228944397E-1,-5.987548828E-4,9.829010468E0,9.829778745E0
5.365577917E0,-1.228944397E-1,-1.796264648E-3,9.792785797E0,9.793557063E0
5.375563917E0,-1.218466187E-1,-1.377136230E-2,9.764195251E0,9.764965190E0
5.385549917E0,-1.297801208E-1,-4.640350342E-3,9.756411438E0,9.757275673E0
5.395535917E0,-1.269360352E-1,-2.769241333E-2,9.750423889E0,9.751289435E0
5.405521917E0,-1.236428833E-1,-1.002914429E-2,9.775721283E0,9.776508311E0
5.415507917E0,-1.233435059E-1,-1.736389160E-2,9.799072723E0,9.799864354E0
5.425493917E0,-1.353186035E-1,-1.676513672E-2,9.792785797E0,9.793735031E0
5.435479917E0,-1.061293030E-1,-2.155517578E-2,9.773775330E0,9.774375287E0
5.445465917E0,-1.210981750E-1,-2.499801636E-2,9.762997742E0,9.763780752E0
5.455451917E0,-1.273851013E-1,-2.035766602E-2,9.778565369E0,9.779416244E0
5.465438917E0,-1.294807434E-1,-2.529739380E-2,9.791887665E0,9.792776382E0
5.475424917E0,-1.435514832E-1,-1.511856079E-2,9.795031128E0,9.796094650E0
5.485410917E0,-1.389111328E-1,-1.182540894E-2,9.784702606E0,9.785695746E0
5.495396917E0,-1.377136230E-1,-1.646575928E-2,9.789492645E0,9.790475086E0
5.505382917E0,-1.308279419E-1,-1.392105103E-2,9.771529999E0,9.772415682E0
5.515368917E0,-1.113684082E-1,-1.945953369E-3,9.772577820E0,9.773212571E0
5.525354917E0,-1.197509766E-1,-9.580078125E-3,9.785451050E0,9.786188447E0
5.535340917E0,-1.059796143E-1,-7.185058594E-3,9.793234863E0,9.793810923E0
5.545326917E0,-1.199006653E-1,-1.661544800E-2,9.816885681E0,9.817631930E0
5.555313917E0,-1.413061523E-1,-2.305206299E-2,9.789792023E0,9.790838916E0
5.565299917E0,-1.296304321E-1,-1.975891113E-2,9.777816925E0,9.778696144E0
5.575285917E0,-1.248403931E-1,-1.586700439E-2,9.754166107E0,9.754977874E0
5.585271458E0,-1.300794983E-1,-2.290237427E-2,9.755513306E0,9.756407384E0
5.595257458E0,-1.209484863E-1,-1.422042847E-2,9.770182800E0,9.770941751E0
5.605243458E0,-1.248403931E-1,-9.729766846E-3,9.800868988E0,9.801668874E0
5.615229458E0,-1.234931946E-1,-2.245330811E-2,9.814790039E0,9.815592607E0
5.625215458E0,-1.350192261E-1,-2.844085693E-3,9.795031128E0,9.795962080E0
5.635201458E0,-1.312770081E-1,-2.020797729E-2,9.760902100E0,9.761805766E0
5.645187458E0,-1.377136230E-1,-2.859054565E-2,9.763297119E0,9.764310170E0
5.655174458E0,-1.236428833E-1,-1.481918335E-2,9.772278442E0,9.773071837E0
5.665160458E0,-1.291813660E-1,-1.571731567E-2,9.778116302E0,9.778982221E0
5.675146458E0,-1.257385254E-1,-1.107696533E-2,9.803713074E0,9.804525634E0
5.685132458E0,-1.224453735E-1,-1.152603149E-2,9.810149689E0,9.810920580E0
5.695118458E0,-1.161584473E-1,-7.334747314E-3,9.799072723E0,9.799763917E0
5.705104458E0,-1.094224548E-1,-1.945953369E-2,9.762398987E0,9.763031595E0
5.715090458E0,-1.257385254E-1,-1.930984497E-2,9.765392761E0,9.766221318E0
5.725076458E0,-1.429527283E-1,-1.152603149E-2,9.769733734E0,9.770786333E0
5.735062458E0,-1.308279419E-1,-1.496887207E-3,9.795629883E0,9.796503611E0
5.745049458E0,-1.275347900E-1,-3.592529297E-3,9.787846069E0,9.788677577E0
5.755035458E0,-1.323248291E-1,-9.580078125E-3,9.786349182E0,9.787248436E0
5.765021458E0,-1.240919495E-1,-1.451980591E-2,9.774972839E0,9.775771256E0
5.775007458E0,-1.282832336E-1,-2.529739380E-2,9.772128754E0,9.773003475E0
5.784993458E0,-1.511856079E-1,-1.511856079E-2,9.783205719E0,9.784385510E0
5.794979458E0,-1.401086426E-1,-1.227447510E-2,9.790390778E0,9.791400956E0
5.804965458E0,-1.535806274E-1,-2.679428101E-2,9.790839844E0,9.792080973E0
5.814951458E0,-1.267863464E-1,-1.990859985E-2,9.765692139E0,9.766535418E0
5.824937458E0,-1.119671631E-1,-1.706451416E-2,9.749825134E0,9.750482962E0
5.834923458E0,-1.160087585E-1,-2.095642090E-2,9.773925018E0,9.774635925E0
5.844910458E0,-1.243913269E-1,-1.945953369E-3,9.795779572E0,9.796569522E0
5.854896458E0,-1.407073975E-1,-7.484436035E-3,9.816885681E0,9.817896876E0
5.864882458E0,-1.380130005E-1,-6.586303711E-3,9.787995758E0,9.788970933E0
5.874868458E0,-1.215472412E-1,-1.092727661E-2,9.755213928E0,9.755977241E0
5.884854458E0,-1.308279419E-1,-1.287322998E-2,9.749226379E0,9.750112649E0
5.894840458E0,-1.082249451E-1,-5.688171387E-3,9.753866730E0,9.754468780E0
5.904826458E0,-1.151106262E-1,-2.649490356E-2,9.790091400E0,9.790803954E0
5.914812458E0,-1.133143616E-1,-9.430389404E-3,9.810748444E0,9.811407346E0
5.924798458E0,-1.302291870E-1,-2.155517578E-2,9.808353424E0,9.809241620E0
5.934784458E0,-1.299298096E-1,-1.975891113E-2,9.780810699E0,9.781693622E0
5.944771458E0,-1.375639343E-1,-2.903961182E-2,9.742041321E0,9.743055795E0
5.954757458E0,-1.285826111E-1,-2.574645996E-2,9.753567352E0,9.754448855E0
5.964743458E0,-1.257385254E-1,-1.841171265E-2,9.766440582E0,9.767267316E0
5.974729458E0,-1.248403931E-1,-6.885681152E-3,9.804162140E0,9.804959347E0
5.984715458E0,-1.137634277E-1,-1.945953369E-3,9.802964630E0,9.803624913E0
5.994701458E0,-1.164578247E-1,-1.631607056E-2,9.806108093E0,9.806813171E0
6.004687458E0,-1.362167358E-1,-1.841171265E-2,9.785451050E0,9.786416415E0
6.014673458E0,-1.297801208E-1,-1.916015625E-2,9.760303345E0,9.761184937E0
6.024659458E0,-1.303788757E-1,-4.041595459E-3,9.735155640E0,9.736029494E0
6.034645458E0,-1.318757629E-1,-1.945953369E-3,9.757758636E0,9.758649938E0
6.044632458E0,-1.389111328E-1,-1.886077881E-2,9.787397003E0,9.788400897E0
6.054618458E0,-1.365161133E-1,-0.000000000E0,9.801767120E0,9.802717752E0
6.064604458E0,-1.332229614E-1,-5.987548828E-4,9.825567627E0,9.826470776E0
6.074590458E0,-1.327738953E-1,-1.796264648E-2,9.791139221E0,9.792055903E0
6.084576458E0,-1.389111328E-1,-1.975891113E-2,9.767039337E0,9.768047099E0
6.094562458E0,-1.246907043E-1,-6.885681152E-3,9.750124512E0,9.750924222E0
6.104548458E0,-1.243913269E-1,-5.688171387E-3,9.741891632E0,9.742687418E0
6.114534458E0,-1.248403931E-1,-1.062789917E-2,9.790390778E0,9.791192453E0
6.124520458E0,-1.085243225E-1,-2.260299683E-2,9.830956421E0,9.831581387E0
6.134506458E0,-1.182540894E-1,-1.302291870E-2,9.815089417E0,9.815810404E0
6.144493458E0,-1.302291870E-1,-7.634124756E-3,9.795929260E0,9.796797844E0
6.154479458E0,-1.348695374E-1,-2.529739380E-2,9.776320038E0,9.777283019E0
6.164465458E0,-1.248403931E-1,-2.170486450E-2,9.744436340E0,9.745260172E0
6.174451458E0,-1.450483704E-1,-2.634521484E-2,9.735155640E0,9.736271793E0
6.184437458E0,-1.327738953E-1,-1.856140137E-2,9.768835602E0,9.769755496E0
6.194423458E0,-1.383123779E-1,2.095642090E-3,9.816586304E0,9.817560866E0
6.204409458E0,-1.251397705E-1,7.783813477E-3,9.827064514E0,9.827864342E0
6.214395458E0,-1.234931946E-1,-1.302291870E-2,9.783954163E0,9.784742164E0
6.224381458E0,-1.152603149E-1,-2.140548706E-2,9.759704590E0,9.760408640E0
6.234367458E0,-1.179547119E-1,-1.227447510E-2,9.740095367E0,9.740817304E0
6.244354458E0,-1.401086426E-1,-1.586700439E-2,9.777367859E0,9.778384552E0
6.254340458E0,-1.291813660E-1,-2.933898926E-2,9.787546692E0,9.788443127E0
6.264326458E0,-1.242416382E-1,-2.709365845E-2,9.815239105E0,9.816062792E0
6.274312458E0,-1.227447510E-1,-2.035766602E-2,9.797875214E0,9.798665185E0
6.284298458E0,-1.204994202E-1,-1.182540894E-2,9.779613190E0,9.780362677E0
6.294277458E0,-1.122665405E-1,2.844085693E-3,9.762398987E0,9.763044906E0
6.304245458E0,-1.233435059E-1,-2.095642090E-2,9.767787781E0,9.768588993E0
6.314212458E0,-1.299298096E-1,-3.832031250E-2,9.790989532E0,9.791926584E0
6.324180458E0,-1.296304321E-1,-2.454895020E-2,9.781858521E0,9.782748224E0
6.334147458E0,-1.276844788E-1,-4.490661621E-3,9.749675446E0,9.750512540E0
6.344115458E0,-1.270857239E-1,-7.484436035E-3,9.746531982E0,9.747363361E0
6.354082458E0,-1.329235840E-1,-6.436614990E-3,9.793384552E0,9.794288698E0
6.364049458E0,-1.264869690E-1,-1.466949463E-2,9.827663269E0,9.828488158E0
6.374016458E0,-1.303788757E-1,-0.000000000E0,9.786049805E0,9.786918281E0
6.383983458E0,-1.287322998E-1,-3.023712158E-2,9.757010193E0,9.757906240E0
6.393951458E0,-1.359173584E-1,-2.305206299E-2,9.732610931E0,9.733587235E0
6.403919458E0,-1.282832336E-1,-3.068618774E-2,9.741741943E0,9.742634876E0
6.413886458E0,-1.445993042E-1,-1.751358032E-2,9.780661011E0,9.781745524E0
6.423854458E0,-1.392105103E-1,-4.790039062E-3,9.816885681E0,9.817873853E0
6.433822458E0,-1.209484863E-1,-6.436614990E-3,9.825417938E0,9.826164441E0
6.443790458E0,-1.176553345E-1,-2.739303589E-2,9.767787781E0,9.768534756E0
6.453757458E0,-1.196012878E-1,-2.155517578E-2,9.737850037E0,9.738608342E0
6.463725458E0,-1.103205872E-1,-1.182540894E-2,9.741292877E0,9.741924727E0
6.473693458E0,-1.236428833E-1,-1.871109009E-2,9.780211945E0,9.781011366E0
6.483661458E0,-1.402583313E-1,-2.350112915E-2,9.814191284E0,9.815221611E0
6.493628458E0,-1.425036621E-1,-1.706451416E-2,9.794432373E0,9.795483857E0
6.503596458E0,-1.308279419E-1,-9.131011963E-3,9.779014435E0,9.779893795E0
6.513564458E0,-1.266366577E-1,-1.526824951E-2,9.773775330E0,9.774607622E0
6.523531458E0,-1.369651794E-1,-1.481918335E-2,9.788295135E0,9.789264565E0
6.533499458E0,-1.308279419E-1,-1.227447510E-2,9.779762878E0,9.780645611E0
6.543466458E0,-1.213975525E-1,-2.948867798E-2,9.774224396E0,9.775022736E0
6.553433458E0,-1.344204712E-1,-2.514770508E-2,9.767488403E0,9.768445679E0
6.563400458E0,-1.281335449E-1,-1.916015625E-2,9.781110077E0,9.781968087E0
6.573367458E0,-1.297801208E-1,-1.975891113E-2,9.789193268E0,9.790073449E0
6.583334458E0,-1.225950623E-1,-1.302291870E-2,9.777068481E0,9.777845736E0
6.593303417E0,-1.342707825E-1,-1.796264648E-3,9.800719299E0,9.801639182E0
6.603270417E0,-1.273851013E-1,-4.340972900E-3,9.794432373E0,9.795261677E0
6.613238417E0,-1.233435059E-1,-6.735992432E-3,9.766590271E0,9.767371423E0
6.623206417E0,-1.338217163E-1,-2.739303589E-2,9.745184784E0,9.746142063E0
6.633174417E0,-1.390608215E-1,-1.227447510E-2,9.775272217E0,9.776268996E0
6.643142417E0,-1.318757629E-1,-1.751358032E-2,9.790091400E0,9.790995229E0
6.653109417E0,-1.396595764E-1,-8.681945801E-3,9.796677704E0,9.797676980E0
6.663076417E0,-1.182540894E-1,-1.616638184E-2,9.806407471E0,9.807133774E0
6.673043417E0,-1.327738953E-1,-1.317260742E-2,9.790690155E0,9.791599263E0
6.683010417E0,-1.221459961E-1,-2.963836670E-2,9.760453033E0,9.761262290E0
6.692978417E0,-1.210981750E-1,-1.751358032E-2,9.759255524E0,9.760022534E0
6.702946417E0,-1.345701599E-1,-8.981323242E-3,9.750872955E0,9.751805637E0
6.712913417E0,-1.395098877E-1,-3.442840576E-3,9.798324280E0,9.799318015E0
6.722880417E0,-1.299298096E-1,-3.143463135E-2,9.829758911E0,9.830667838E0
6.732848417E0,-1.290316772E-1,-1.227447510E-2,9.784702606E0,9.785561043E0
6.742815417E0,-1.327738953E-1,-6.586303711E-3,9.761201477E0,9.762106666E0
6.752783417E0,-1.320254517E-1,-1.796264648E-3,9.757908325E0,9.758801608E0
6.762750417E0,-1.266366577E-1,5.987548828E-4,9.757010193E0,9.757831988E0
6.772717417E0,-1.288819885E-1,5.987548828E-4,9.785001984E0,9.785850742E0
6.782685417E0,-1.375639343E-1,-1.646575928E-2,9.842033386E0,9.843008490E0
6.792652417E0,-1.242416382E-1,-1.616638184E-2,9.818232880E0,9.819032244E0
6.802620417E0,-1.266366577E-1,-3.592529297E-2,9.762548676E0,9.763436081E0
6.812587417E0,-1.248403931E-1,-1.691482544E-2,9.713600464E0,9.714417389E0
6.822554417E0,-1.288819885E-1,-1.691482544E-2,9.726922760E0,9.727791273E0
6.832522417E0,-1.200503540E-1,-1.916015625E-2,9.786498871E0,9.787253923E0
6.842490417E0,-1.347198486E-1,-3.038681030E-2,9.824968872E0,9.825939453E0
6.852458417E0,-1.408570862E-1,-5.089416504E-3,9.831555176E0,9.832565474E0
6.862425417E0,-1.299298096E-1,-4.340972900E-3,9.781110077E0,9.781973980E0
6.872392417E0,-1.222956848E-1,-2.874023438E-2,9.742490387E0,9.743300323E0
6.882360417E0,-1.353186035E-1,-3.502716064E-2,9.748028870E0,9.749030971E0
6.892328417E0,-1.291813660E-1,-2.933898926E-2,9.764644318E0,9.765542855E0
6.902296417E0,-1.350192261E-1,-4.640350342E-3,9.791588287E0,9.792520253E0
6.912263417E0,-1.284329224E-1,-1.990859985E-2,9.807754669E0,9.808615754E0
6.922231417E0,-1.231938171E-1,-2.035766602E-2,9.786199493E0,9.786996050E0
6.932198417E0,-1.182540894E-1,-2.350112915E-2,9.777966614E0,9.778709906E0
6.942164417E0,-1.378633118E-1,-1.287322998E-2,9.774224396E0,9.775205090E0
6.952131417E0,-1.345701599E-1,-2.694396973E-2,9.774374084E0,9.775337531E0
6.962098417E0,-1.369651794E-1,-2.754272461E-2,9.769733734E0,9.770732588E0
6.972066417E0,-1.387614441E-1,-2.140548706E-2,9.774224396E0,9.775232758E0
6.982034417E0,-1.338217163E-1,-1.242416382E-2,9.787546692E0,9.788469383E0
6.992002417E0,-1.175056458E-1,-1.362167358E-2,9.808203735E0,9.808917047E0
7.001970417E0,-1.290316772E-1,-1.766326904E-2,9.795629883E0,9.796495596E0
7.011939417E0,-1.273851013E-1,-2.649490356E-2,9.773176575E0,9.774042629E0
7.021907417E0,-1.435514832E-1,-3.038681030E-2,9.769883423E0,9.770985236E0
7.031876417E0,-1.380130005E-1,-1.272354126E-2,9.754764862E0,9.755749433E0
7.041843417E0,-1.431024170E-1,-5.388793945E-3,9.783056030E0,9.784104079E0
7.051812417E0,-1.091230774E-1,-1.556762695E-2,9.786648560E0,9.787269294E0
7.061780417E0,-1.230441284E-1,-1.257385254E-2,9.783954163E0,9.784735920E0
7.071748417E0,-1.237925720E-1,3.592529297E-3,9.796228638E0,9.797011434E0
7.081716417E0,-1.213975525E-1,-8.382568359E-3,9.773625641E0,9.774383142E0
7.091684417E0,-1.348695374E-1,-2.784210205E-2,9.767338715E0,9.768309503E0
7.101652417E0,-1.258882141E-1,-2.409988403E-2,9.785600739E0,9.786440132E0
7.111620417E0,-1.405577087E-1,-3.188369751E-2,9.795779572E0,9.796839820E0
7.121588417E0,-1.187031555E-1,-3.727249146E-2,9.771829376E0,9.772621400E0
7.131556417E0,-1.387614441E-1,-6.137237549E-3,9.761500854E0,9.762488993E0
7.141524417E0,-1.315763855E-1,-7.634124756E-3,9.768386536E0,9.769275620E0
7.151492417E0,-1.172062683E-1,-1.766326904E-2,9.782008209E0,9.782726302E0
7.161461417E0,-1.100212097E-1,-3.592529297E-3,9.789792023E0,9.790410891E0
7.171429417E0,-1.275347900E-1,-1.856140137E-2,9.790540466E0,9.791388679E0
7.181397417E0,-1.308279419E-1,-2.170486450E-2,9.781559143E0,9.782458092E0
7.191365417E0,-1.279838562E-1,-6.885681152E-3,9.782157898E0,9.782997517E0
7.201334417E0,-1.266366577E-1,-1.886077881E-2,9.756411438E0,9.757251494E0
7.211302417E0,-1.234931946E-1,1.646575928E-3,9.762548676E0,9.763329858E0
7.221270417E0,-1.092727661E-1,-7.783813477E-3,9.815089417E0,9.815700758E0
7.231238417E0,-1.336720276E-1,-2.769241333E-2,9.803264008E0,9.804214414E0
7.241206417E0,-1.523831177E-1,-3.068618774E-2,9.741442566E0,9.742682666E0
7.251174417E0,-1.372645569E-1,-1.422042847E-2,9.727371826E0,9.728350653E0
7.261143417E0,-1.389111328E-1,-1.556762695E-2,9.739197235E0,9.740200277E0
7.271111417E0,-1.401086426E-1,-5.987548828E-3,9.810748444E0,9.811750675E0
7.281079417E0,-1.252894592E-1,-8.681945801E-3,9.870474243E0,9.871273201E0
7.291057417E0,-1.074765015E-1,-6.286926270E-3,9.860744476E0,9.861332179E0
7.301046417E0,-1.315763855E-1,-2.694396973E-2,9.779762878E0,9.780685062E0
7.311033417E0,-1.308279419E-1,-1.826202393E-2,9.701475677E0,9.702374955E0
7.321019417E0,-1.347198486E-1,-1.466949463E-2,9.724527740E0,9.725471937E0
7.331005417E0,-1.401086426E-1,-1.990859985E-2,9.776619415E0,9.777643580E0
7.340992417E0,-1.537303162E-1,-1.122665405E-2,9.822124786E0,9.823334178E0
7.350978417E0,-1.332229614E-1,-1.272354126E-2,9.846074982E0,9.846984452E0
7.360964417E0,-1.176553345E-1,-2.350112915E-2,9.790390778E0,9.791125914E0
7.370950417E0,-1.038839722E-1,-1.466949463E-2,9.732910309E0,9.733475749E0
7.380936417E0,-1.258882141E-1,-3.412902832E-2,9.734706573E0,9.735580348E0
7.390922417E0,-1.392105103E-1,-2.200424194E-2,9.797875214E0,9.798888838E0
7.400908417E0,-1.445993042E-1,-2.679428101E-2,9.813592529E0,9.814694352E0
7.410894417E0,-1.377136230E-1,-2.439926147E-2,9.795929260E0,9.796927602E0
7.420880417E0,-1.315763855E-1,-3.742218018E-3,9.770781555E0,9.771668156E0
7.430866417E0,-1.163081360E-1,7.484436035E-4,9.759255524E0,9.759948592E0
7.440852417E0,-1.041833496E-1,-5.089416504E-3,9.760602722E0,9.761160053E0
7.450838417E0,-9.939331055E-2,-2.320175171E-2,9.791887665E0,9.792419588E0
7.460825417E0,-1.203497314E-1,-3.592529297E-3,9.808353424E0,9.809092407E0
7.470811417E0,-1.239422607E-1,-1.930984497E-2,9.783954163E0,9.784758230E0
7.480797417E0,-1.305285645E-1,-2.125579834E-2,9.773475952E0,9.774370655E0
7.490783417E0,-1.365161133E-1,-1.646575928E-2,9.768236847E0,9.769204618E0
7.500769417E0,-1.414558411E-1,-1.781295776E-2,9.772727509E0,9.773767442E0
7.510755417E0,-1.243913269E-1,-2.095642090E-3,9.789642334E0,9.790432811E0
7.520741417E0,-1.224453735E-1,-8.831634521E-3,9.797875214E0,9.798644272E0
7.530727417E0,-1.124162292E-1,-8.232879639E-3,9.771679688E0,9.772329768E0
7.540713417E0,-1.369651794E-1,-1.736389160E-2,9.771080933E0,9.772056260E0
7.550699417E0,-1.338217163E-1,-1.347198486E-2,9.791139221E0,9.792062959E0
7.560685417E0,-1.287322998E-1,-0.000000000E0,9.803114319E0,9.803959524E0
7.570672417E0,-1.215472412E-1,-1.287322998E-2,9.800719299E0,9.801481431E0
7.580658417E0,-1.293310547E-1,-2.514770508E-2,9.784852295E0,9.785739285E0
7.590644292E0,-1.170565796E-1,-9.580078125E-3,9.764045563E0,9.764751905E0
7.600630292E0,-1.101708984E-1,-4.340972900E-3,9.760453033E0,9.761075755E0
7.610616292E0,-1.335223389E-1,-1.002914429E-2,9.796677704E0,9.797592706E0
7.620602292E0,-1.547781372E-1,-2.754272461E-2,9.818232880E0,9.819491420E0
7.630588292E0,-1.378633118E-1,-2.649490356E-2,9.802066498E0,9.803071758E0
7.640574292E0,-1.311273193E-1,-2.035766602E-2,9.761201477E0,9.762103415E0
7.650560292E0,-1.395098877E-1,-1.571731567E-2,9.733509064E0,9.734521495E0
7.660546292E0,-1.104702759E-1,7.334747314E-3,9.742191010E0,9.742820082E0
7.670532292E0,-1.137634277E-1,-2.185455322E-2,9.801018677E0,9.801703262E0
7.680518292E0,-1.288819885E-1,-1.526824951E-2,9.831854553E0,9.832711103E0
7.690505292E0,-1.227447510E-1,-1.392105103E-2,9.810449066E0,9.811226781E0
7.700491292E0,-1.393601990E-1,-8.981323242E-3,9.769584045E0,9.770582089E0
7.710477292E0,-1.261875916E-1,-1.781295776E-2,9.750872955E0,9.751705697E0
7.720463292E0,-1.377136230E-1,-1.002914429E-2,9.727371826E0,9.728351776E0
7.730449292E0,-1.228944397E-1,-1.347198486E-2,9.762398987E0,9.763181782E0
7.740435292E0,-1.136137390E-1,-1.227447510E-2,9.803713074E0,9.804379061E0
7.750421292E0,-1.285826111E-1,-1.032852173E-2,9.809550934E0,9.810399059E0
7.760407292E0,-1.190025330E-1,-1.077758789E-2,9.790839844E0,9.791568955E0
7.770393292E0,-1.269360352E-1,-2.799179077E-2,9.775122528E0,9.775986740E0
7.780379292E0,-1.377136230E-1,-2.380050659E-2,9.765542450E0,9.766542420E0
7.790365292E0,-1.332229614E-1,-2.499801636E-2,9.759105835E0,9.760047129E0
7.800352292E0,-1.381626892E-1,-2.110610962E-2,9.762698364E0,9.763698774E0
7.810338292E0,-1.317260742E-1,-1.571731567E-2,9.787696381E0,9.788595366E0
7.820324292E0,-1.143621826E-1,-2.200424194E-2,9.819580078E0,9.820270658E0
7.830310292E0,-1.246907043E-1,-1.646575928E-2,9.807305603E0,9.808112055E0
7.840296292E0,-1.249900818E-1,-1.137634277E-2,9.805060272E0,9.805863495E0
7.850282292E0,-1.263372803E-1,-1.751358032E-2,9.757459259E0,9.758292834E0
7.860268292E0,-1.266366577E-1,-2.694396973E-2,9.737101593E0,9.737962326E0
7.870254292E0,-1.299298096E-1,-2.005828857E-2,9.739646301E0,9.740533567E0
7.880240292E0,-1.255888367E-1,-1.826202393E-2,9.783205719E0,9.784028833E0
7.890226292E0,-1.296304321E-1,-1.182540894E-2,9.820328522E0,9.821191178E0
7.900212292E0,-1.266366577E-1,-3.143463135E-3,9.827962646E0,9.828778994E0
7.910199292E0,-1.288819885E-1,-5.089416504E-3,9.801467743E0,9.802316379E0
7.920185292E0,-1.345701599E-1,-1.990859985E-2,9.763746185E0,9.764693802E0
7.930171292E0,-1.210981750E-1,-2.245330811E-2,9.752220154E0,9.752997839E0
7.940157292E0,-1.236428833E-1,-2.170486450E-2,9.758357391E0,9.759164802E0
7.950143292E0,-1.270857239E-1,-1.811233521E-2,9.793983307E0,9.794824544E0
7.960129292E0,-1.371148682E-1,-2.395019531E-3,9.806706848E0,9.807665646E0
7.970115292E0,-1.290316772E-1,3.742218018E-3,9.816885681E0,9.817734344E0
7.980101292E0,-1.284329224E-1,-1.212478638E-2,9.775122528E0,9.775973735E0
7.990087292E0,-1.152603149E-1,-1.032852173E-2,9.764195251E0,9.764880979E0
8.000073292E0,-1.365161133E-1,-1.796264648E-2,9.768536224E0,9.769506603E0
8.010059292E0,-1.296304321E-1,-2.933898926E-2,9.756561127E0,9.757466364E0
8.020046292E0,-1.157093811E-1,-2.799179077E-2,9.771529999E0,9.772255150E0
8.030032292E0,-1.353186035E-1,-2.709365845E-2,9.812694397E0,9.813664785E0
8.040018292E0,-1.371148682E-1,-7.933502197E-3,9.796977081E0,9.797939751E0
8.050004292E0,-1.233435059E-1,-3.891906738E-3,9.776619415E0,9.777398220E0
8.059990292E0,-1.204994202E-1,-1.272354126E-2,9.772278442E0,9.773029620E0
8.069976292E0,-1.221459961E-1,-1.945953369E-2,9.765991516E0,9.766774729E0
8.079962292E0,-1.275347900E-1,-8.382568359E-3,9.760153656E0,9.760990461E0
8.089948292E0,-1.363664246E-1,-1.107696533E-2,9.793234863E0,9.794190502E0
8.099934292E0,-1.034349060E-1,-1.616638184E-2,9.818382568E0,9.818940696E0
8.109920292E0,-1.166075134E-1,-1.901046753E-2,9.796228638E0,9.796941065E0
8.119906292E0,-1.447489929E-1,-8.083190918E-3,9.769284668E0,9.770360307E0
8.129893292E0,-1.218466187E-1,-1.556762695E-2,9.743089142E0,9.743863452E0
8.139879292E0,-1.297801208E-1,-2.395019531E-3,9.744286652E0,9.745151151E0
8.149865292E0,-1.263372803E-1,-1.152603149E-2,9.769284668E0,9.770108335E0
8.159851292E0,-1.296304321E-1,-2.365081787E-2,9.790989532E0,9.791876196E0
8.169837292E0,-1.258882141E-1,-2.395019531E-3,9.804012451E0,9.804820943E0
8.179823292E0,-1.210981750E-1,-1.646575928E-3,9.798174591E0,9.798923043E0
8.189809292E0,-1.248403931E-1,-9.131011963E-3,9.755962372E0,9.756765360E0
8.199795292E0,-1.236428833E-1,-2.035766602E-2,9.771979065E0,9.772782451E0
8.209781292E0,-1.438508606E-1,-2.065704346E-2,9.775272217E0,9.776352423E0
8.219767292E0,-1.210981750E-1,-1.975891113E-2,9.795629883E0,9.796398317E0
8.229753292E0,-1.398092651E-1,-2.694396973E-2,9.791139221E0,9.792174419E0
8.239740292E0,-1.366658020E-1,-3.502716064E-2,9.781708832E0,9.782726211E0
8.249726292E0,-1.258882141E-1,-2.005828857E-2,9.771080933E0,9.771912442E0
8.259712292E0,-1.230441284E-1,1.197509766E-2,9.780361633E0,9.781142926E0
8.269698292E0,-1.288819885E-1,-1.062789917E-2,9.768685913E0,9.769541851E0
8.279684292E0,-1.396595764E-1,-1.930984497E-2,9.778565369E0,9.779581706E0
8.289670292E0,-1.332229614E-1,-1.092727661E-2,9.780960388E0,9.781873741E0
8.299656292E0,-1.248403931E-1,-1.466949463E-2,9.784852295E0,9.785659648E0
8.309642292E0,-1.163081360E-1,-3.248245239E-2,9.776320038E0,9.777065826E0
8.319628292E0,-1.318757629E-1,-2.469863892E-2,9.779762878E0,9.780683166E0
8.329614292E0,-1.267863464E-1,-1.182540894E-2,9.776320038E0,9.777149283E0
8.339600292E0,-1.064286804E-1,-8.532257080E-3,9.776020660E0,9.776603695E0
8.349587292E0,-1.188528442E-1,-4.520599365E-2,9.774224396E0,9.775051515E0
8.359573292E0,-1.275347900E-1,-2.439926147E-2,9.765542450E0,9.766405674E0
8.369559292E0,-1.392105103E-1,-1.960922241E-2,9.789043579E0,9.790053028E0
8.379545292E0,-1.336720276E-1,-1.796264648E-3,9.796827393E0,9.797739453E0
8.389531292E0,-1.299298096E-1,-6.137237549E-3,9.803114319E0,9.803977242E0
8.399517292E0,-1.207987976E-1,-3.891906738E-3,9.779762878E0,9.780509673E0
8.409503292E0,-1.173559570E-1,-1.811233521E-2,9.764644318E0,9.765366308E0
8.419489292E0,-1.287322998E-1,-2.544708252E-2,9.736802216E0,9.737686427E0
8.429475292E0,-1.167572021E-1,-2.020797729E-2,9.762099609E0,9.762818722E0
8.439461292E0,-1.164578247E-1,3.592529297E-3,9.772128754E0,9.772823323E0
8.449447292E0,-1.311273193E-1,-2.380050659E-2,9.793833618E0,9.794740312E0
8.459434292E0,-1.145118713E-1,-2.200424194E-2,9.786648560E0,9.787343214E0
8.469420292E0,-1.420545959E-1,-3.367996216E-2,9.776769104E0,9.777859068E0
8.479406292E0,-1.378633118E-1,-2.784210205E-2,9.768985291E0,9.769997701E0
8.489392292E0,-1.300794983E-1,-1.347198486E-2,9.755064240E0,9.755940779E0
8.499378292E0,-1.248403931E-1,-2.245330811E-3,9.772128754E0,9.772926406E0
8.509364292E0,-1.191522217E-1,7.484436035E-3,9.780960388E0,9.781688984E0
8.519350292E0,-1.200503540E-1,-8.831634521E-3,9.792187042E0,9.792926894E0
8.529336292E0,-1.448986816E-1,-7.783813477E-3,9.786349182E0,9.787424918E0
8.539322292E0,-1.257385254E-1,-5.538482666E-3,9.783505096E0,9.784314632E0
8.549308292E0,-1.246907043E-1,-5.688171387E-3,9.792785797E0,9.793581255E0
8.559294292E0,-1.191522217E-1,-1.407073975E-2,9.756112061E0,9.756849787E0
8.569281292E0,-1.290316772E-1,-1.152603149E-2,9.762249298E0,9.763108797E0
8.579267292E0,-1.266366577E-1,-1.002914429E-2,9.775122528E0,9.775947927E0
8.589253083E0,-1.276844788E-1,-1.826202393E-2,9.789642334E0,9.790492013E0
8.599239083E0,-1.287322998E-1,-1.017883301E-2,9.807455292E0,9.808305405E0
8.609225083E0,-1.199006653E-1,-1.107696533E-2,9.787247314E0,9.787987988E0
8.619211083E0,-1.257385254E-1,-2.409988403E-2,9.773326263E0,9.774164784E0
8.629197083E0,-1.365161133E-1,-1.197509766E-3,9.788893890E0,9.789845846E0
8.639183083E0,-1.384620667E-1,-7.933502197E-3,9.785451050E0,9.786433821E0
8.649169083E0,-1.341210938E-1,-1.407073975E-2,9.786947937E0,9.787877011E0
8.659155083E0,-1.276844788E-1,-2.978805542E-2,9.785451050E0,9.786329389E0
8.669142083E0,-1.222956848E-1,-1.227447510E-2,9.782457275E0,9.783229387E0
8.679128083E0,-1.291813660E-1,-8.981323242E-3,9.770182800E0,9.771040909E0
8.689114083E0,-1.230441284E-1,-3.038681030E-2,9.756411438E0,9.757234617E0
8.699100083E0,-1.257385254E-1,-2.424957275E-2,9.766739960E0,9.767579417E0
8.709086083E0,-1.348695374E-1,-1.422042847E-2,9.771080933E0,9.772022033E0
8.719072083E0,-1.234931946E-1,-1.227447510E-2,9.796677704E0,9.797463716E0
8.729058083E0,-1.260379028E-1,-3.427871704E-2,9.797575836E0,9.798446451E0
8.739044083E0,-1.267863464E-1,3.742218018E-3,9.788444824E0,9.789266615E0
8.749030083E0,-1.276844788E-1,-1.197509766E-2,9.774224396E0,9.775065691E0
8.759016083E0,-1.335223389E-1,-1.257385254E-2,9.761351166E0,9.762272425E0
8.769002083E0,-1.354682922E-1,-1.422042847E-2,9.759704590E0,9.760655078E0
8.778988083E0,-1.320254517E-1,-8.831634521E-3,9.792935486E0,9.793829391E0
8.788975083E0,-1.389111328E-1,-1.481918335E-2,9.802665253E0,9.803660641E0
8.798961083E0,-1.431024170E-1,-1.706451416E-2,9.798324280E0,9.799384072E0
8.808947083E0,-1.204994202E-1,-2.559677124E-2,9.775272217E0,9.776048395E0
8.818933083E0,-1.216969299E-1,-1.496887207E-4,9.767338715E0,9.768096833E0
8.828919083E0,-1.236428833E-1,-2.365081787E-2,9.765692139E0,9.766503462E0
8.838905083E0,-1.258882141E-1,-1.736389160E-2,9.790989532E0,9.791814202E0
8.848891083E0,-1.300794983E-1,-1.317260742E-2,9.799222412E0,9.800094595E0
8.858877083E0,-1.272354126E-1,-9.131011963E-3,9.808802490E0,9.809631926E0
8.868863083E0,-1.314266968E-1,-4.790039062E-3,9.792935486E0,9.793818528E0
8.878849083E0,-1.457968140E-1,-9.131011963E-3,9.772577820E0,9.773669594E0
8.888836083E0,-1.378633118E-1,-8.232879639E-3,9.768685913E0,9.769662151E0
8.898822083E0,-1.321751404E-1,3.293151855E-3,9.781559143E0,9.782452677E0
8.908808083E0,-1.326242065E-1,-1.347198486E-2,9.797426147E0,9.798333011E0
8.918794083E0,-1.333726501E-1,-1.511856079E-2,9.798174591E0,9.799093945E0
8.928780083E0,-1.317260742E-1,-2.664459229E-2,9.790091400E0,9.791013804E0
8.938766083E0,-1.297801208E-1,-1.496887207E-2,9.763596497E0,9.764470467E0
8.948752083E0,-1.308279419E-1,-7.035369873E-3,9.774673462E0,9.775551480E0
8.958738083E0,-1.282832336E-1,-1.796264648E-3,9.772278442E0,9.773120575E0
8.968724083E0,-1.169068909E-1,-2.185455322E-2,9.790989532E0,9.791711846E0
8.978710083E0,-1.282832336E-1,-9.879455566E-3,9.815239105E0,9.816082359E0
8.988696083E0,-1.327738953E-1,-1.766326904E-2,9.801168365E0,9.802083566E0
8.998682083E0,-1.193019104E-1,-1.466949463E-2,9.762698364E0,9.763438303E0
9.008669083E0,-1.202000427E-1,-6.286926270E-3,9.758357391E0,9.759099679E0
9.018655083E0,-1.345701599E-1,-1.676513672E-2,9.767638092E0,9.768579431E0
9.028641083E0,-1.148112488E-1,-2.544708252E-2,9.783804474E0,9.784511187E0
9.038627083E0,-1.359173584E-1,-2.215393066E-2,9.816436615E0,9.817402515E0
9.048613083E0,-1.360670471E-1,-7.484436035E-3,9.793534241E0,9.794482283E0
9.058599083E0,-1.350192261E-1,-1.691482544E-2,9.771829376E0,9.772776763E0
9.068585083E0,-1.228944397E-1,-1.916015625E-2,9.768685913E0,9.769477705E0
9.078571083E0,-1.306782532E-1,-1.751358032E-2,9.760153656E0,9.761044151E0
9.088557083E0,-1.095721436E-1,-1.062789917E-2,9.771230621E0,9.771850739E0
9.098543083E0,-1.282832336E-1,4.490661621E-4,9.764943695E0,9.765786305E0
9.108530083E0,-1.222956848E-1,-1.766326904E-2,9.782307587E0,9.783087956E0
9.118516083E0,-1.249900818E-1,-2.439926147E-2,9.776769104E0,9.777598476E0
9.128502083E0,-1.225950623E-1,-8.083190918E-3,9.784552917E0,9.785324250E0
9.138488083E0,-1.285826111E-1,-1.212478638E-2,9.799372101E0,9.800223164E0
9.148474083E0,-1.360670471E-1,-3.158432007E-2,9.780810699E0,9.781808102E0
9.158460083E0,-1.413061523E-1,-1.047821045E-2,9.771529999E0,9.772557277E0
9.168446083E0,-1.191522217E-1,-3.113525391E-2,9.757159882E0,9.757937057E0
9.178432083E0,-1.209484863E-1,-2.275268555E-2,9.763596497E0,9.764372113E0
9.188418083E0,-1.267863464E-1,-0.000000000E0,9.777816925E0,9.778638893E0
9.198404083E0,-1.258882141E-1,-6.286926270E-3,9.801318054E0,9.802128492E0
9.208390083E0,-1.345701599E-1,-1.511856079E-2,9.806856537E0,9.807791435E0
9.218377083E0,-1.347198486E-1,-1.392105103E-2,9.771679688E0,9.772618234E0
9.228363083E0,-1.191522217E-1,-1.706451416E-2,9.757459259E0,9.758201660E0
9.238349083E0,-1.380130005E-1,-8.532257080E-3,9.745035095E0,9.746016078E0
9.248335083E0,-1.254391479E-1,-5.538482666E-3,9.776170349E0,9.776976647E0
9.258321083E0,-1.239422607E-1,-7.334747314E-3,9.805060272E0,9.805846339E0
9.268307083E0,-1.290316772E-1,-2.245330811E-3,9.829459534E0,9.830306655E0
9.278293083E0,-1.224453735E-1,-6.586303711E-3,9.792037354E0,9.792805103E0
9.288279083E0,-1.148112488E-1,-2.155517578E-2,9.769883423E0,9.770581781E0
9.298265083E0,-1.332229614E-1,-2.874023438E-2,9.741442566E0,9.742395887E0
9.308251083E0,-1.396595764E-1,-2.604583740E-2,9.752669220E0,9.753703917E0
9.318237083E0,-1.332229614E-1,-5.987548828E-3,9.767937469E0,9.768847763E0
9.328224083E0,-1.281335449E-1,-4.191284180E-3,9.802066498E0,9.802904845E0
9.338210083E0,-1.438508606E-1,-5.089416504E-3,9.805209961E0,9.806266433E0
9.348187083E0,-1.347198486E-1,-1.212478638E-2,9.800569611E0,9.801503004E0
9.358156083E0,-1.254391479E-1,-2.005828857E-2,9.783505096E0,9.784329782E0
9.368125083E0,-1.308279419E-1,-4.191284180E-3,9.755363617E0,9.756241736E0
9.378094083E0,-1.375639343E-1,-1.886077881E-2,9.737400970E0,9.738390895E0
9.388062083E0,-1.336720276E-1,-2.888992310E-2,9.761949921E0,9.762907819E0
9.398031083E0,-1.329235840E-1,-2.380050659E-2,9.787846069E0,9.788777545E0
9.408000083E0,-1.371148682E-1,-4.790039062E-3,9.839338989E0,9.840295482E0
9.417969083E0,-1.459465027E-1,-1.227447510E-2,9.794282684E0,9.795377703E0
9.427937083E0,-1.167572021E-1,-1.691482544E-2,9.752070465E0,9.752784049E0
9.437906083E0,-1.257385254E-1,-3.158432007E-2,9.736652527E0,9.737515606E0
9.447873083E0,-1.261875916E-1,-2.859054565E-2,9.738598480E0,9.739457946E0
9.457842083E0,-1.224453735E-1,-2.320175171E-2,9.751621399E0,9.752417705E0
9.467810083E0,-1.318757629E-1,-2.724334717E-2,9.794282684E0,9.795208355E0
9.477778083E0,-1.408570862E-1,-1.945953369E-3,9.832902374E0,9.833911409E0
9.487746083E0,-1.360670471E-1,-2.903961182E-2,9.814490662E0,9.815476783E0
9.497715083E0,-1.203497314E-1,-2.948867798E-2,9.765841827E0,9.766627885E0
9.507683083E0,-1.206491089E-1,-1.197509766E-2,9.743238831E0,9.743993151E0
9.517652083E0,-1.329235840E-1,-2.544708252E-2,9.740245056E0,9.741185245E0
9.527621083E0,-1.275347900E-1,-1.032852173E-2,9.750872955E0,9.751712424E0
9.537590083E0,-1.365161133E-1,-4.490661621E-4,9.789342957E0,9.790294805E0
9.547558083E0,-1.426533508E-1,-1.137634277E-2,9.815837860E0,9.816880986E0
9.557527083E0,-1.285826111E-1,-3.367996216E-2,9.826316071E0,9.827215035E0
9.567496083E0,-1.362167358E-1,-1.437011719E-2,9.795929260E0,9.796886831E0
9.577464083E0,-1.302291870E-1,-2.664459229E-2,9.744286652E0,9.745193273E0
9.587433083E0,-1.296304321E-1,-2.993774414E-2,9.724976807E0,9.725886808E0
9.597401208E0,-1.242416382E-1,-1.496887207E-2,9.774074707E0,9.774875776E0
9.607369208E0,-1.378633118E-1,-2.918930054E-2,9.787995758E0,9.789010127E0
9.617337208E0,-1.408570862E-1,-2.140548706E-2,9.823921051E0,9.824954134E0
9.627305208E0,-1.541793823E-1,-1.182540894E-2,9.809101868E0,9.810320615E0
9.637273208E0,-1.469943237E-1,-1.347198486E-3,9.788594513E0,9.789698243E0
9.647241208E0,-1.303788757E-1,1.496887207E-4,9.728120270E0,9.728993918E0
9.657210208E0,-1.200503540E-1,-1.392105103E-2,9.727521515E0,9.728272236E0
9.667178208E0,-1.254391479E-1,-1.781295776E-2,9.760153656E0,9.760975959E0
9.677147208E0,-1.191522217E-1,-2.395019531E-2,9.799072723E0,9.799826381E0
9.687115208E0,-1.362167358E-1,-1.077758789E-2,9.816286926E0,9.817237910E0
9.697083208E0,-1.353186035E-1,-2.529739380E-2,9.804162140E0,9.805128574E0
9.707052208E0,-1.202000427E-1,-1.661544800E-2,9.773775330E0,9.774528547E0
9.717021208E0,-1.240919495E-1,-1.766326904E-2,9.757908325E0,9.758713321E0
9.726989208E0,-1.154100037E-1,-2.544708252E-2,9.761500854E0,9.762216242E0
9.736958208E0,-1.240919495E-1,-2.814147949E-2,9.766290894E0,9.767119769E0
9.746926208E0,-1.161584473E-1,-3.233276367E-2,9.789792023E0,9.790534512E0
9.756895208E0,-1.318757629E-1,-1.152603149E-2,9.805958405E0,9.806851906E0
9.766863208E0,-1.339714050E-1,-4.490661621E-3,9.798324280E0,9.799241154E0
9.776831208E0,-1.284329224E-1,-1.616638184E-2,9.771529999E0,9.772387369E0
9.786799208E0,-1.438508606E-1,-1.736389160E-2,9.754016418E0,9.755092561E0
9.796767208E0,-1.151106262E-1,-2.020797729E-2,9.754016418E0,9.754716557E0
9.806736208E0,-1.335223389E-1,-3.562591553E-2,9.776170349E0,9.777147034E0
9.816704208E0,-1.279838562E-1,-8.232879639E-3,9.792935486E0,9.793775221E0
9.826673208E0,-1.182540894E-1,-1.886077881E-2,9.787995758E0,9.788728248E0
9.836641208E0,-1.347198486E-1,-1.781295776E-2,9.779014435E0,9.779958592E0
9.846610208E0,-1.309776306E-1,-1.616638184E-2,9.776918793E0,9.777809446E0
9.856579208E0,-1.266366577E-1,-2.514770508E-2,9.762997742E0,9.763851400E0
9.866547208E0,-1.252894592E-1,-2.589614868E-2,9.756112061E0,9.756950886E0
9.876516208E0,-1.216969299E-1,-1.601669312E-2,9.777816925E0,9.778587347E0
9.886484208E0,-1.239422607E-1,-1.257385254E-2,9.796528015E0,9.797320090E0
9.896452208E0,-1.293310547E-1,-1.526824951E-2,9.784103851E0,9.784970507E0
9.906421208E0,-1.210981750E-1,-2.499801636E-2,9.774673462E0,9.775455537E0
9.916390208E0,-1.275347900E-1,-3.442840576E-3,9.752968597E0,9.753803024E0
9.926358208E0,-1.221459961E-1,-1.616638184E-2,9.773625641E0,9.774402241E0
9.936326208E0,-1.381626892E-1,-1.960922241E-2,9.787247314E0,9.788242102E0
9.946295208E0,-1.416055298E-1,-7.334747314E-3,9.789342957E0,9.790369832E0
9.956263208E0,-1.369651794E-1,-1.706451416E-2,9.788594513E0,9.789567569E0
9.966232208E0,-1.351689148E-1,-1.841171265E-2,9.773775330E0,9.774727302E0
9.976200208E0,-1.390608215E-1,-1.841171265E-2,9.763596497E0,9.764604111E0
9.986169208E0,-1.245410156E-1,-1.062789917E-2,9.755962372E0,9.756763050E0
9.996138208E0,-1.173559570E-1,-1.481918335E-2,9.801916809E0,9.802630523E0
1.000610621E1,-1.408570862E-1,-1.796264648E-2,9.799372101E0,9.800400856E0
1.001607521E1,-1.360670471E-1,-1.811233521E-2,9.811796265E0,9.812756404E0
1.002604421E1,-1.327738953E-1,-2.724334717E-2,9.791139221E0,9.792077326E0
1.003601321E1,-1.338217163E-1,-1.481918335E-2,9.761051788E0,9.761980325E0
1.004598121E1,-1.275347900E-1,-8.681945801E-3,9.763746185E0,9.764582944E0
1.005595021E1,-1.139131165E-1,-1.077758789E-2,9.766739960E0,9.767410189E0
1.006591821E1,-1.333726501E-1,4.490661621E-3,9.773925018E0,9.774835993E0
1.007588621E1,-1.264869690E-1,-1.302291870E-2,9.785600739E0,9.786426844E0
1.008585421E1,-1.404080200E-1,-4.296066284E-2,9.802665253E0,9.803764893E0
1.009582221E1,-1.490899658E-1,-1.960922241E-2,9.779912567E0,9.781068559E0
1.010579121E1,-1.243913269E-1,-2.365081787E-2,9.765991516E0,9.766812318E0
1.011575921E1,-1.269360352E-1,-2.469863892E-2,9.746082916E0,9.746940802E0
1.012572821E1,-1.196012878E-1,-3.353027344E-2,9.753267975E0,9.754058895E0
1.013569621E1,-1.188528442E-1,-1.242416382E-2,9.769584045E0,9.770314876E0
1.014566521E1,-1.257385254E-1,-7.634124756E-3,9.797426147E0,9.798235942E0
1.015563321E1,-1.249900818E-1,-1.616638184E-2,9.830058289E0,9.830866179E0
1.016560121E1,-1.486408997E-1,-3.278182983E-2,9.801916809E0,9.803098587E0
1.017557021E1,-1.393601990E-1,-3.113525391E-2,9.745783539E0,9.746829610E0
1.018553921E1,-1.100212097E-1,-1.466949463E-2,9.725725250E0,9.726358594E0
1.019550821E1,-1.196012878E-1,-1.317260742E-2,9.740694122E0,9.741437264E0
1.020547721E1,-1.353186035E-1,-8.232879639E-3,9.781110077E0,9.782049542E0
1.021544621E1,-1.474433899E-1,-4.790039062E-3,9.835447083E0,9.836553350E0
1.022541521E1,-1.419049072E-1,-2.230361938E-2,9.837542725E0,9.838591429E0
1.023538421E1,-1.335223389E-1,-2.065704346E-2,9.796378326E0,9.797310000E0
1.024535321E1,-1.212478638E-1,-2.469863892E-2,9.743388519E0,9.744174203E0
1.025532121E1,-1.300794983E-1,-3.847000122E-2,9.729467468E0,9.730413035E0
1.026529021E1,-1.348695374E-1,-2.365081787E-2,9.747280426E0,9.748242142E0
1.027525921E1,-1.296304321E-1,-1.856140137E-2,9.797875214E0,9.798750292E0
1.028522721E1,-1.233435059E-1,-1.107696533E-2,9.841734009E0,9.842513125E0
1.029519621E1,-1.178050232E-1,-2.095642090E-3,9.827812958E0,9.828519214E0
1.030516421E1,-1.242416382E-1,-1.017883301E-2,9.776469727E0,9.777264439E0
1.031513321E1,-1.137634277E-1,-1.362167358E-2,9.742789764E0,9.743463453E0
1.032510221E1,-1.228944397E-1,-2.604583740E-2,9.737850037E0,9.738660317E0
1.033507121E1,-1.305285645E-1,-7.933502197E-3,9.747879181E0,9.748756288E0
1.034503921E1,-1.294807434E-1,-2.260299683E-2,9.786498871E0,9.787381484E0
1.035500821E1,-1.410067749E-1,-3.427871704E-2,9.826615448E0,9.827686864E0
1.036497621E1,-1.339714050E-1,-1.137634277E-2,9.845176849E0,9.846094909E0
1.037494521E1,-1.302291870E-1,-2.844085693E-2,9.800868988E0,9.801775423E0
1.038491321E1,-1.234931946E-1,-1.990859985E-2,9.750872955E0,9.751675257E0
1.039488321E1,-1.302291870E-1,-3.083587646E-2,9.729317780E0,9.730238175E0
1.040485121E1,-1.254391479E-1,-1.826202393E-2,9.736502838E0,9.737327970E0
1.041482021E1,-1.303788757E-1,1.496887207E-3,9.787846069E0,9.788714500E0
1.042478921E1,-1.326242065E-1,-9.131011963E-3,9.846673737E0,9.847571083E0
1.043475721E1,-1.294807434E-1,-1.002914429E-2,9.818981323E0,9.819840125E0
1.044472621E1,-1.342707825E-1,-2.709365845E-2,9.787995758E0,9.788954166E0
1.045469521E1,-1.082249451E-1,-1.721420288E-2,9.752070465E0,9.752686159E0
1.046466421E1,-1.194515991E-1,-1.227447510E-2,9.737850037E0,9.738590385E0
1.047463321E1,-1.288819885E-1,-2.125579834E-2,9.760902100E0,9.761776077E0
1.048460221E1,-1.249900818E-1,-1.496887207E-3,9.813442841E0,9.814238898E0
1.049457021E1,-1.327738953E-1,4.490661621E-4,9.835896149E0,9.836792270E0
1.050453921E1,-1.231938171E-1,-1.137634277E-2,9.805509338E0,9.806289794E0
1.051450821E1,-1.134640503E-1,-1.422042847E-2,9.768985291E0,9.769654544E0
1.052447621E1,-1.145118713E-1,-1.736389160E-2,9.741143188E0,9.741831711E0
1.053444621E1,-1.255888367E-1,-1.317260742E-2,9.741891632E0,9.742710026E0
1.054441521E1,-1.130149841E-1,-8.232879639E-3,9.771829376E0,9.772486353E0
1.055438321E1,-1.338217163E-1,-2.918930054E-2,9.808652802E0,9.809609067E0
1.056435121E1,-1.438508606E-1,-3.442840576E-3,9.814340973E0,9.815395746E0
1.057432021E1,-1.333726501E-1,-2.514770508E-2,9.796378326E0,9.797318459E0
1.058428921E1,-1.128652954E-1,-7.634124756E-3,9.784403229E0,9.785057148E0
1.059425817E1,-1.206491089E-1,3.742218018E-3,9.757010193E0,9.757756818E0
1.060422717E1,-1.187031555E-1,-2.365081787E-2,9.771529999E0,9.772279587E0
1.061419717E1,-1.242416382E-1,-2.978805542E-2,9.792486420E0,9.793319845E0
1.062416617E1,-1.413061523E-1,-8.831634521E-3,9.817933502E0,9.818954307E0
1.063413517E1,-1.291813660E-1,-2.874023438E-2,9.804611206E0,9.805504308E0
1.064410317E1,-1.347198486E-1,-9.580078125E-3,9.789342957E0,9.790274600E0
1.065407317E1,-1.248403931E-1,-2.185455322E-2,9.767937469E0,9.768759653E0
1.066404217E1,-1.309776306E-1,-7.185058594E-3,9.755213928E0,9.756095815E0
1.067401117E1,-1.184037781E-1,-1.601669312E-2,9.764943695E0,9.765674649E0
1.068397917E1,-1.356179810E-1,-7.933502197E-3,9.784852295E0,9.785795298E0
1.069394817E1,-1.445993042E-1,-1.691482544E-2,9.816586304E0,9.817665798E0
1.070391717E1,-1.323248291E-1,-1.152603149E-2,9.793234863E0,9.794135582E0
1.071388617E1,-1.239422607E-1,-2.335144043E-2,9.776619415E0,9.777432903E0
1.072385517E1,-1.142124939E-1,-1.811233521E-2,9.770631866E0,9.771316166E0
1.073382417E1,-1.157093811E-1,-8.831634521E-3,9.765841827E0,9.766531281E0
1.074379417E1,-1.342707825E-1,-1.706451416E-2,9.783056030E0,9.783992290E0
1.075376317E1,-1.257385254E-1,-1.496887207E-2,9.797725525E0,9.798543754E0
1.076373217E1,-1.152603149E-1,-1.332229614E-2,9.800419922E0,9.801106727E0
1.077370017E1,-1.269360352E-1,-2.948867798E-2,9.781259766E0,9.782127833E0
1.078366917E1,-1.348695374E-1,-1.631607056E-2,9.771230621E0,9.772174981E0
1.079363817E1,-1.303788757E-1,-1.930984497E-2,9.782606964E0,9.783494802E0
1.080360717E1,-1.166075134E-1,-2.514770508E-2,9.772128754E0,9.772856803E0
1.081357617E1,-1.303788757E-1,-1.077758789E-2,9.778565369E0,9.779440448E0
1.082354617E1,-1.199006653E-1,-1.047821045E-3,9.786648560E0,9.787383067E0
1.083351517E1,-1.240919495E-1,-2.694396973E-3,9.800868988E0,9.801654911E0
1.084348517E1,-1.372645569E-1,-2.185455322E-2,9.820927277E0,9.821910799E0
1.085345317E1,-1.215472412E-1,-1.766326904E-2,9.793384552E0,9.794154721E0
1.086342217E1,-1.264869690E-1,-2.140548706E-2,9.773775330E0,9.774617197E0
1.087339117E1,-1.318757629E-1,-1.661544800E-2,9.749675446E0,9.750581448E0
1.088336017E1,-1.354682922E-1,-2.035766602E-2,9.748927002E0,9.749889424E0
1.089332817E1,-1.314266968E-1,-1.736389160E-2,9.772577820E0,9.773476952E0
1.090329617E1,-1.380130005E-1,1.047821045E-3,9.813592529E0,9.814563007E0
1.091326517E1,-1.487905884E-1,-7.484436035E-3,9.816286926E0,9.817417363E0
1.092323317E1,-1.264869690E-1,-1.826202393E-2,9.783205719E0,9.784040402E0
1.093320117E1,-1.264869690E-1,-2.589614868E-2,9.764344940E0,9.765198496E0
1.094317017E1,-1.311273193E-1,-1.646575928E-3,9.777667236E0,9.778546603E0
1.095313717E1,-1.260379028E-1,-2.005828857E-2,9.788295135E0,9.789127109E0
1.096310417E1,-1.438508606E-1,-1.332229614E-2,9.801767120E0,9.802831695E0
1.097307217E1,-1.392105103E-1,-1.317260742E-2,9.789792023E0,9.790790618E0
1.098304017E1,-1.306782532E-1,-1.466949463E-2,9.763746185E0,9.764631666E0
1.099300817E1,-1.239422607E-1,-2.050735474E-2,9.752369843E0,9.753178958E0
1.100297617E1,-1.272354126E-1,-2.155517578E-2,9.812395020E0,9.813243577E0
1.101294417E1,-1.255888367E-1,-2.484832764E-2,9.801767120E0,9.802603158E0
1.102291217E1,-1.249900818E-1,-3.113525391E-2,9.782606964E0,9.783454959E0
1.103288117E1,-1.282832336E-1,-7.035369873E-3,9.760153656E0,9.760999205E0
1.104285017E1,-1.339714050E-1,-3.158432007E-2,9.749974823E0,9.750946362E0
1.105281917E1,-1.260379028E-1,-1.646575928E-2,9.759255524E0,9.760083250E0
1.106278717E1,-1.264869690E-1,-4.041595459E-3,9.806407471E0,9.807224009E0
1.107275717E1,-1.374142456E-1,-2.080673218E-2,9.839338989E0,9.840320490E0
1.108272517E1,-1.395098877E-1,-7.634124756E-3,9.797126770E0,9.798122996E0
1.109269417E1,-1.076261902E-1,-2.170486450E-2,9.763596497E0,9.764213796E0
1.110266217E1,-1.158590698E-1,-2.888992310E-2,9.748028870E0,9.748760167E0
1.111263017E1,-1.237925720E-1,-2.245330811E-2,9.774374084E0,9.775183758E0
1.112259917E1,-1.357676697E-1,-3.472778320E-2,9.802216187E0,9.803217892E0
1.113256817E1,-1.419049072E-1,-2.439926147E-2,9.822873230E0,9.823928482E0
1.114253717E1,-1.432521057E-1,-1.706451416E-2,9.802365875E0,9.803427417E0
1.115250617E1,-1.285826111E-1,-1.990859985E-2,9.780511322E0,9.781376772E0
1.116247517E1,-1.300794983E-1,-1.901046753E-2,9.771380310E0,9.772264591E0
1.117244417E1,-1.275347900E-1,-8.382568359E-3,9.770631866E0,9.771467774E0
1.118241317E1,-1.261875916E-1,-1.945953369E-2,9.771529999E0,9.772364120E0
1.119238217E1,-1.294807434E-1,-1.826202393E-2,9.813592529E0,9.814463668E0
1.120235117E1,-1.303788757E-1,-3.861968994E-2,9.818831635E0,9.819773154E0
1.121232117E1,-1.326242065E-1,-1.077758789E-2,9.761201477E0,9.762108359E0
1.122229017E1,-1.423539734E-1,-1.287322998E-2,9.742490387E0,9.743538850E0
1.123226017E1,-1.519340515E-1,-1.871109009E-2,9.754016418E0,9.755217596E0
1.124222917E1,-1.420545959E-1,4.490661621E-4,9.786199493E0,9.787230468E0
1.125219917E1,-1.357676697E-1,-2.005828857E-2,9.813442841E0,9.814402457E0
1.126216917E1,-1.239422607E-1,-1.272354126E-2,9.839338989E0,9.840127810E0
1.127213817E1,-1.196012878E-1,1.197509766E-3,9.806557159E0,9.807286537E0
1.128210817E1,-1.249900818E-1,-1.437011719E-2,9.773026886E0,9.773836684E0
1.129207817E1,-1.228944397E-1,-3.038681030E-2,9.760303345E0,9.761124309E0
1.130204717E1,-1.181044006E-1,-2.050735474E-2,9.752968597E0,9.753705227E0
1.131201717E1,-1.447489929E-1,-1.601669312E-2,9.801318054E0,9.802399931E0
1.132198617E1,-1.392105103E-1,-2.784210205E-2,9.795929260E0,9.796957937E0
1.133195517E1,-1.258882141E-1,-3.143463135E-2,9.787097626E0,9.787957699E0
1.134192417E1,-1.216969299E-1,-7.334747314E-3,9.773475952E0,9.774236345E0
1.135189517E1,-1.269360352E-1,-5.688171387E-3,9.765243073E0,9.766069700E0
1.136186517E1,-1.213975525E-1,-4.176315308E-2,9.786349182E0,9.787191213E0
1.137183417E1,-1.489402771E-1,-2.634521484E-2,9.801617432E0,9.802784378E0
1.138180417E1,-1.407073975E-1,-2.903961182E-2,9.787097626E0,9.788152114E0
1.139177317E1,-1.243913269E-1,-1.811233521E-2,9.782008209E0,9.782815845E0
1.140174217E1,-1.145118713E-1,-1.871109009E-2,9.763596497E0,9.764285925E0
1.141171217E1,-1.070274353E-1,-6.286926270E-3,9.777218170E0,9.777805968E0
1.142168117E1,-1.258882141E-1,-1.571731567E-2,9.786947937E0,9.787770165E0
1.143165117E1,-1.194515991E-1,-2.409988403E-2,9.803114319E0,9.803871676E0
1.144162017E1,-1.435514832E-1,-1.676513672E-2,9.804311829E0,9.805377021E0
1.145158917E1,-1.302291870E-1,-1.257385254E-2,9.765841827E0,9.766718197E0
1.146155917E1,-1.293310547E-1,-1.496887207E-2,9.750423889E0,9.751293074E0
1.147152917E1,-1.204994202E-1,-2.215393066E-2,9.771230621E0,9.771998709E0
1.148149917E1,-1.179547119E-1,-1.362167358E-2,9.789792023E0,9.790512076E0
1.149146917E1,-1.251397705E-1,-2.544708252E-3,9.807604980E0,9.808403636E0
1.150143917E1,-1.336720276E-1,-3.592529297E-3,9.784852295E0,9.785765966E0
1.151140817E1,-1.209484863E-1,-1.287322998E-2,9.779912567E0,9.780668897E0
1.152137717E1,-1.414558411E-1,2.694396973E-3,9.779313812E0,9.780337195E0
1.153134617E1,-1.386117554E-1,-1.751358032E-2,9.773925018E0,9.774923540E0
1.154131617E1,-1.365161133E-1,-2.095642090E-2,9.765841827E0,9.766818439E0
1.155128517E1,-1.363664246E-1,-1.856140137E-2,9.787097626E0,9.788065195E0
1.156125417E1,-1.209484863E-1,-1.362167358E-2,9.793234863E0,9.793991177E0
1.157122317E1,-1.324745178E-1,-2.844085693E-3,9.800270233E0,9.801165963E0
1.158119117E1,-1.243913269E-1,-2.065704346E-2,9.772278442E0,9.773091930E0
1.159116017E1,-1.314266968E-1,-2.230361938E-2,9.764644318E0,9.765554213E0
1.160112929E1,-1.320254517E-1,-1.856140137E-2,9.755363617E0,9.756274624E0
1.161109929E1,-1.263372803E-1,5.688171387E-3,9.770033112E0,9.770851573E0
1.162106829E1,-1.299298096E-1,1.601669312E-2,9.795629883E0,9.796504636E0
1.163103829E1,-1.442999268E-1,-1.466949463E-2,9.790540466E0,9.791614795E0
1.164100729E1,-1.299298096E-1,-2.260299683E-2,9.804012451E0,9.804899428E0
1.165097729E1,-1.222956848E-1,-1.332229614E-2,9.786498871E0,9.787272034E0
1.166094729E1,-1.303788757E-1,-2.769241333E-2,9.765692139E0,9.766601685E0
1.167091729E1,-1.278341675E-1,-1.916015625E-2,9.766440582E0,9.767295958E0
1.168088729E1,-1.167572021E-1,-2.679428101E-2,9.760153656E0,9.760888769E0
1.169085629E1,-1.386117554E-1,-1.901046753E-2,9.779164124E0,9.780164905E0
1.170082629E1,-1.164578247E-1,-1.317260742E-2,9.817484436E0,9.818183976E0
1.171079629E1,-1.219963074E-1,-1.481918335E-2,9.802515564E0,9.803285882E0
1.172076529E1,-1.296304321E-1,-3.592529297E-3,9.779463501E0,9.780323273E0
1.173073529E1,-1.306782532E-1,-2.814147949E-2,9.751471710E0,9.752387875E0
1.174070529E1,-1.196012878E-1,-2.409988403E-2,9.768685913E0,9.769447771E0
1.175067529E1,-1.326242065E-1,-1.092727661E-2,9.783505096E0,9.784410077E0
1.176064429E1,-1.359173584E-1,-3.442840576E-3,9.801467743E0,9.802410688E0
1.177061429E1,-1.300794983E-1,-2.859054565E-2,9.811646576E0,9.812550465E0
1.178058429E1,-1.318757629E-1,-1.721420288E-2,9.805209961E0,9.806111866E0
1.179055429E1,-1.350192261E-1,-1.077758789E-2,9.762249298E0,9.763188911E0
1.180052429E1,-1.359173584E-1,-2.499801636E-2,9.760902100E0,9.761880363E0
1.181049429E1,-1.320254517E-1,-3.233276367E-2,9.756710815E0,9.757657612E0
1.182046429E1,-1.345701599E-1,-1.407073975E-2,9.787696381E0,9.788631546E0
1.183043429E1,-1.311273193E-1,-4.640350342E-3,9.806108093E0,9.806985869E0
1.184040429E1,-1.359173584E-1,1.347198486E-3,9.802515564E0,9.803457896E0
1.185037429E1,-1.267863464E-1,-3.682342529E-2,9.796228638E0,9.797118263E0
1.186034329E1,-1.196012878E-1,-3.083587646E-2,9.778116302E0,9.778896346E0
1.187031329E1,-1.160087585E-1,-1.990859985E-2,9.757758636E0,9.758468527E0
1.188028229E1,-1.240919495E-1,-3.128494263E-2,9.767787781E0,9.768626090E0
1.189025129E1,-1.270857239E-1,-3.098556519E-2,9.788444824E0,9.789318820E0
1.190022029E1,-1.371148682E-1,-1.212478638E-2,9.774074707E0,9.775043932E0
1.191019029E1,-1.435514832E-1,-2.110610962E-2,9.785600739E0,9.786676367E0
1.192015929E1,-1.389111328E-1,-8.382568359E-3,9.783056030E0,9.784045782E0
1.193012829E1,-1.266366577E-1,-1.616638184E-2,9.781559143E0,9.782392216E0
1.194009829E1,-1.257385254E-1,-1.032852173E-2,9.772128754E0,9.772943120E0
1.195006729E1,-1.457968140E-1,-1.721420288E-2,9.784852295E0,9.785953580E0
1.196003629E1,-1.261875916E-1,-5.688171387E-3,9.798324280E0,9.799138450E0
1.197000629E1,-1.269360352E-1,-3.188369751E-2,9.806407471E0,9.807280806E0
1.197997529E1,-1.492396545E-1,-3.158432007E-2,9.785151672E0,9.786340649E0
1.198994429E1,-1.398092651E-1,-2.844085693E-2,9.788594513E0,9.789634214E0
1.199991329E1,-1.263372803E-1,-1.826202393E-2,9.782606964E0,9.783439764E0
1.200988229E1,-1.332229614E-1,-1.841171265E-2,9.784253540E0,9.785177805E0
1.201985229E1,-1.401086426E-1,-1.152603149E-2,9.774374084E0,9.775385006E0
1.202982229E1,-1.194515991E-1,-8.532257080E-3,9.796528015E0,9.797259955E0
1.203979229E1,-1.161584473E-1,-1.107696533E-2,9.794582062E0,9.795277089E0
1.204976229E1,-1.317260742E-1,-1.975891113E-2,9.781110077E0,9.782016996E0
1.205973229E1,-1.275347900E-1,-1.556762695E-2,9.784702606E0,9.785546105E0
1.206970229E1,-1.257385254E-1,7.484436035E-4,9.794432373E0,9.795239469E0
1.207967229E1,-1.246907043E-1,-1.272354126E-2,9.781858521E0,9.782661487E0
1.208964229E1,-1.456471252E-1,-1.107696533E-2,9.777068481E0,9.778159534E0
1.209961229E1,-1.303788757E-1,-2.230361938E-2,9.789941711E0,9.790835246E0
1.210958329E1,-1.323248291E-1,-4.490661621E-3,9.799372101E0,9.800266506E0
1.211955229E1,-1.336720276E-1,-2.454895020E-2,9.791737976E0,9.792681117E0
1.212952229E1,-1.148112488E-1,-2.110610962E-2,9.782307587E0,9.783004079E0
1.213949129E1,-1.196012878E-1,-2.140548706E-2,9.769134979E0,9.769890527E0
1.214946029E1,-1.320254517E-1,-1.975891113E-2,9.772428131E0,9.773339895E0
1.215942929E1,-1.285826111E-1,-2.335144043E-2,9.783654785E0,9.784527568E0
1.216939929E1,-1.300794983E-1,-1.646575928E-2,9.781409454E0,9.782288214E0
1.217936929E1,-1.258882141E-1,-2.499801636E-2,9.778565369E0,9.779407621E0
1.218933829E1,-1.413061523E-1,-7.035369873E-3,9.765841827E0,9.766866617E0
1.219930829E1,-1.339714050E-1,-1.945953369E-2,9.770332489E0,9.771270335E0
1.220927729E1,-1.218466187E-1,-1.571731567E-2,9.781409454E0,9.782180971E0
1.221924729E1,-1.350192261E-1,-8.382568359E-3,9.786498871E0,9.787433811E0
1.222921629E1,-1.416055298E-1,-2.080673218E-2,9.795180817E0,9.796226430E0
1.223918529E1,-1.266366577E-1,-1.242416382E-2,9.776320038E0,9.777148085E0
1.224915529E1,-1.176553345E-1,3.742218018E-3,9.771380310E0,9.772089334E0
1.225912429E1,-1.273851013E-1,-5.688171387E-3,9.784253540E0,9.785084397E0
1.226909329E1,-1.324745178E-1,-1.556762695E-2,9.795779572E0,9.796687668E0
1.227906329E1,-1.419049072E-1,-2.170486450E-2,9.791139221E0,9.792191550E0
1.228903329E1,-1.380130005E-1,-2.589614868E-2,9.785001984E0,9.786009504E0
1.229900229E1,-1.375639343E-1,-2.080673218E-2,9.779313812E0,9.780303441E0
1.230897229E1,-1.462458801E-1,-1.901046753E-2,9.770631866E0,9.771744794E0
1.231894129E1,-1.272354126E-1,-1.077758789E-2,9.784103851E0,9.784937055E0
1.232891129E1,-1.293310547E-1,-1.377136230E-2,9.783056030E0,9.783920557E0
1.233888129E1,-1.366658020E-1,-6.885681152E-3,9.775870972E0,9.776828638E0
1.234885129E1,-1.372645569E-1,-1.347198486E-2,9.786199493E0,9.787171378E0
1.235882029E1,-1.320254517E-1,-4.790039062E-3,9.789193268E0,9.790084703E0
1.236879129E1,-1.237925720E-1,-3.742218018E-2,9.792037354E0,9.792891328E0
1.237876029E1,-1.199006653E-1,-1.841171265E-2,9.787397003E0,9.788148715E0
1.238873029E1,-1.281335449E-1,-1.646575928E-2,9.780062256E0,9.780915451E0
1.239869929E1,-1.176553345E-1,-3.592529297E-3,9.763746185E0,9.764455707E0
1.240866829E1,-1.202000427E-1,-1.841171265E-2,9.762548676E0,9.763305981E0
1.241863829E1,-1.275347900E-1,-1.496887207E-2,9.789043579E0,9.789885770E0
1.242860729E1,-1.318757629E-1,-8.831634521E-3,9.808054047E0,9.808944561E0
1.243857729E1,-1.152603149E-1,-2.365081787E-2,9.793534241E0,9.794241023E0
1.244854729E1,-1.161584473E-1,-1.646575928E-2,9.762997742E0,9.763702618E0
1.245851729E1,-1.272354126E-1,-9.131011963E-3,9.747430115E0,9.748264772E0
1.246848729E1,-1.345701599E-1,-2.454895020E-2,9.762698364E0,9.763656648E0
1.247845729E1,-1.392105103E-1,-1.107696533E-2,9.771829376E0,9.772827207E0
1.248842629E1,-1.194515991E-1,-1.437011719E-2,9.807604980E0,9.808342910E0
1.249839629E1,-1.225950623E-1,-1.511856079E-2,9.812694397E0,9.813471835E0
1.250836529E1,-1.225950623E-1,5.388793945E-3,9.777218170E0,9.777988225E0
1.251833429E1,-1.293310547E-1,-3.442840576E-3,9.740694122E0,9.741553283E0
1.252830429E1,-1.350192261E-1,-2.574645996E-2,9.746981049E0,9.747950176E0
1.253827229E1,-1.315763855E-1,-1.766326904E-2,9.771080933E0,9.771982753E0
1.254824129E1,-1.269360352E-1,-1.362167358E-2,9.809101868E0,9.809932607E0
1.255821029E1,-1.246907043E-1,-2.110610962E-2,9.796977081E0,9.797793281E0
1.256817929E1,-1.278341675E-1,-1.182540894E-2,9.787846069E0,9.788687966E0
1.257814729E1,-1.333726501E-1,-2.529739380E-2,9.777816925E0,9.778759228E0
1.258811729E1,-1.374142456E-1,-2.439926147E-2,9.764494629E0,9.765491967E0
1.259808621E1,-1.386117554E-1,-1.631607056E-2,9.770931244E0,9.771927998E0
1.260805621E1,-1.273851013E-1,-2.050735474E-2,9.783505096E0,9.784355855E0
1.261802621E1,-1.330732727E-1,-2.125579834E-2,9.772428131E0,9.773357247E0
1.262799621E1,-1.258882141E-1,-1.526824951E-2,9.798923035E0,9.799743548E0
1.263796521E1,-1.279838562E-1,-2.844085693E-3,9.773925018E0,9.774763333E0
1.264793421E1,-1.202000427E-1,-2.409988403E-2,9.756710815E0,9.757480965E0
1.265790321E1,-1.216969299E-1,-1.826202393E-2,9.774972839E0,9.775747422E0
1.266787221E1,-1.227447510E-1,-1.601669312E-2,9.779164124E0,9.779947534E0
1.267784121E1,-1.303788757E-1,-1.796264648E-2,9.788145447E0,9.789030217E0
1.268781121E1,-1.369651794E-1,-7.185058594E-3,9.788594513E0,9.789555333E0
1.269778021E1,-1.258882141E-1,-1.481918335E-2,9.791588287E0,9.792408725E0
1.270775021E1,-1.374142456E-1,-9.729766846E-3,9.793534241E0,9.794503064E0
1.271772021E1,-1.380130005E-1,-1.841171265E-2,9.758207703E0,9.759200999E0
1.272768921E1,-1.234931946E-1,-1.826202393E-2,9.783654785E0,9.784451187E0
1.273765921E1,-1.219963074E-1,-2.005828857E-2,9.770182800E0,9.770965018E0
1.274762821E1,-1.405577087E-1,-1.122665405E-2,9.785900116E0,9.786915938E0
1.275759821E1,-1.416055298E-1,1.197509766E-3,9.815089417E0,9.816110931E0
1.276756721E1,-1.290316772E-1,-2.200424194E-2,9.804012451E0,9.804886206E0
1.277753721E1,-1.252894592E-1,-1.167572021E-2,9.788893890E0,9.789702619E0
1.278750621E1,-1.246907043E-1,-1.691482544E-2,9.763895874E0,9.764706679E0
1.279747521E1,-1.219963074E-1,-7.484436035E-3,9.773475952E0,9.774240191E0
1.280744421E1,-1.109193420E-1,-1.856140137E-2,9.768835602E0,9.769482926E0
1.281741321E1,-1.297801208E-1,-1.377136230E-2,9.785001984E0,9.785872284E0
1.282738321E1,-1.314266968E-1,-2.155517578E-2,9.806557159E0,9.807461492E0
1.283735321E1,-1.335223389E-1,-2.290237427E-2,9.787995758E0,9.788933226E0
1.284732221E1,-1.354682922E-1,-2.784210205E-2,9.774374084E0,9.775352453E0
1.285729221E1,-1.282832336E-1,-1.526824951E-2,9.755812683E0,9.756668018E0
1.286726221E1,-1.196012878E-1,-1.556762695E-2,9.746681671E0,9.747427887E0
1.287723221E1,-1.275347900E-1,-5.239105225E-3,9.794731750E0,9.795563416E0
1.288720221E1,-1.199006653E-1,-2.365081787E-2,9.812395020E0,9.813156044E0
1.289717121E1,-1.240919495E-1,-1.377136230E-2,9.817484436E0,9.818278317E0
1.290714121E1,-1.158590698E-1,-8.232879639E-3,9.794582062E0,9.795270740E0
1.291711021E1,-1.321751404E-1,-2.245330811E-2,9.758357391E0,9.759278324E0
1.292707821E1,-1.228944397E-1,-9.280700684E-3,9.749376068E0,9.750155019E0
1.293704721E1,-1.137634277E-1,-2.499801636E-2,9.772727509E0,9.773421610E0
1.294701621E1,-1.221459961E-1,-2.245330811E-2,9.781708832E0,9.782497200E0
1.295698621E1,-1.231938171E-1,-1.182540894E-2,9.814191284E0,9.814971580E0
1.296695721E1,-1.297801208E-1,-9.430389404E-3,9.808503113E0,9.809366194E0
1.297692621E1,-1.330732727E-1,-2.888992310E-2,9.794731750E0,9.795678291E0
1.298689621E1,-1.356179810E-1,-3.263214111E-2,9.765243073E0,9.766239264E0
1.299686521E1,-1.317260742E-1,-1.541793823E-2,9.748927002E0,9.749829084E0
1.300683521E1,-1.203497314E-1,-3.427871704E-2,9.748477936E0,9.749281058E0
1.301680421E1,-1.324745178E-1,-1.511856079E-2,9.767488403E0,9.768398424E0
1.302677421E1,-1.254391479E-1,-1.691482544E-2,9.814340973E0,9.815157147E0
1.303674421E1,-1.350192261E-1,-1.242416382E-2,9.824370117E0,9.825305733E0
1.304671421E1,-1.338217163E-1,-1.781295776E-2,9.818382568E0,9.819310659E0
1.305668321E1,-1.225950623E-1,-4.640350342E-3,9.770631866E0,9.771402057E0
1.306665321E1,-1.269360352E-1,-2.200424194E-2,9.731413422E0,9.732266135E0
1.307662221E1,-1.306782532E-1,-7.933502197E-3,9.738299103E0,9.739179080E0
1.308659221E1,-1.278341675E-1,-1.062789917E-2,9.775122528E0,9.775964145E0
1.309656121E1,-1.338217163E-1,-2.484832764E-2,9.815239105E0,9.816182781E0
1.310653021E1,-1.356179810E-1,-1.197509766E-2,9.852810974E0,9.853751556E0
1.311649921E1,-1.275347900E-1,-1.616638184E-2,9.799372101E0,9.800215306E0
1.312646921E1,-1.233435059E-1,-1.960922241E-2,9.753267975E0,9.754067579E0
1.313643921E1,-1.257385254E-1,-2.814147949E-2,9.726324005E0,9.727177431E0
1.314640821E1,-1.278341675E-1,-2.784210205E-2,9.753567352E0,9.754444774E0
1.315637721E1,-1.200503540E-1,-1.631607056E-2,9.802665253E0,9.803413913E0
1.316634521E1,-1.401086426E-1,-1.960922241E-2,9.837093658E0,9.838110926E0
1.317631421E1,-1.312770081E-1,-9.729766846E-3,9.814041595E0,9.814924389E0
1.318628321E1,-1.152603149E-1,-1.586700439E-2,9.774823151E0,9.775515553E0
1.319625221E1,-1.359173584E-1,-7.484436035E-3,9.752968597E0,9.753918495E0
1.320622021E1,-1.338217163E-1,-2.305206299E-2,9.738748169E0,9.739694839E0
1.321618921E1,-1.335223389E-1,-2.155517578E-2,9.760453033E0,9.761390078E0
1.322615821E1,-1.371148682E-1,-1.571731567E-2,9.808952179E0,9.809923056E0
1.323612621E1,-1.187031555E-1,-1.317260742E-2,9.808503113E0,9.809230208E0
1.324609521E1,-1.252894592E-1,-1.332229614E-2,9.812844086E0,9.813652938E0
1.325606421E1,-1.294807434E-1,4.790039062E-3,9.778864746E0,9.779723101E0
1.326603421E1,-1.329235840E-1,-8.831634521E-3,9.755962372E0,9.756871859E0
1.327600221E1,-1.299298096E-1,-1.197509766E-2,9.762099609E0,9.762971573E0
1.328597121E1,-1.363664246E-1,-1.197509766E-2,9.754315796E0,9.755276308E0
1.329593921E1,-1.309776306E-1,-8.981323242E-4,9.781708832E0,9.782585733E0
1.330590821E1,-1.222956848E-1,-1.197509766E-2,9.807006226E0,9.807776035E0
1.331587621E1,-1.299298096E-1,-2.754272461E-2,9.804760895E0,9.805660435E0
1.332584521E1,-1.356179810E-1,-1.706451416E-2,9.792636108E0,9.793590015E0
1.333581421E1,-1.199006653E-1,-1.930984497E-2,9.769883423E0,9.770638215E0
1.334578221E1,-1.261875916E-1,-2.230361938E-2,9.770482178E0,9.771322467E0
1.335575121E1,-1.191522217E-1,-2.439926147E-2,9.772428131E0,9.773184954E0
1.336571921E1,-1.288819885E-1,-1.496887207E-4,9.791139221E0,9.791987430E0
1.337568821E1,-1.204994202E-1,-3.293151855E-3,9.806407471E0,9.807148334E0
1.338565621E1,-1.404080200E-1,4.490661621E-4,9.796977081E0,9.797983188E0
1.339562521E1,-1.321751404E-1,-5.089416504E-3,9.787397003E0,9.788290774E0
1.340559421E1,-1.190025330E-1,-3.412902832E-2,9.777667236E0,9.778450950E0
1.341556221E1,-1.140628052E-1,-2.365081787E-2,9.773176575E0,9.773870781E0
1.342553121E1,-1.272354126E-1,-2.320175171E-2,9.769584045E0,9.770440092E0
1.343549921E1,-1.344204712E-1,-3.427871704E-2,9.780810699E0,9.781794408E0
1.344546721E1,-1.252894592E-1,1.197509766E-3,9.784403229E0,9.785205436E0
1.345543521E1,-1.284329224E-1,-8.382568359E-3,9.785451050E0,9.786297437E0
1.346540421E1,-1.399589539E-1,-1.332229614E-2,9.782606964E0,9.783617174E0
1.347537221E1,-1.399589539E-1,-1.167572021E-2,9.781409454E0,9.782417684E0
1.348534021E1,-1.312770081E-1,-3.667373657E-2,9.776769104E0,9.777719199E0
1.349530821E1,-1.360670471E-1,-1.826202393E-2,9.775272217E0,9.776236221E0
1.350527621E1,-1.312770081E-1,-2.215393066E-2,9.773775330E0,9.774682023E0
1.351524521E1,-1.258882141E-1,-1.272354126E-2,9.793983307E0,9.794800598E0
1.352521321E1,-1.258882141E-1,-2.335144043E-2,9.792785797E0,9.793622762E0
1.353518121E1,-1.312770081E-1,-2.769241333E-2,9.798324280E0,9.799242788E0
1.354515021E1,-1.315763855E-1,-1.975891113E-2,9.790390778E0,9.791294824E0
1.355511921E1,-1.252894592E-1,-2.454895020E-2,9.765991516E0,9.766826014E0
1.356508721E1,-1.437011719E-1,-2.664459229E-2,9.773326263E0,9.774418971E0
1.357505621E1,-1.296304321E-1,-1.841171265E-2,9.780960388E0,9.781836696E0
1.358502421E1,-1.354682922E-1,-3.592529297E-3,9.790540466E0,9.791478294E0
1.359499204E1,-1.335223389E-1,1.047821045E-3,9.794582062E0,9.795492181E0
1.360496104E1,-1.263372803E-1,-1.990859985E-2,9.790690155E0,9.791525477E0
1.361493004E1,-1.315763855E-1,-1.167572021E-2,9.783355408E0,9.784247120E0
1.362489804E1,-1.276844788E-1,-1.257385254E-2,9.749226379E0,9.750070586E0
1.363486704E1,-1.324745178E-1,-2.409988403E-2,9.759854279E0,9.760783055E0
1.364483504E1,-1.300794983E-1,-1.272354126E-2,9.777367859E0,9.778241397E0
1.365480304E1,-1.218466187E-1,-2.020797729E-2,9.795031128E0,9.795809806E0
1.366477104E1,-1.342707825E-1,-2.005828857E-2,9.783505096E0,9.784446993E0
1.367474004E1,-1.374142456E-1,-3.143463135E-2,9.784253540E0,9.785268936E0
1.368470804E1,-1.387614441E-1,-3.293151855E-3,9.786199493E0,9.787183768E0
1.369467604E1,-1.255888367E-1,-2.095642090E-2,9.772577820E0,9.773407235E0
1.370464504E1,-1.312770081E-1,-3.338058472E-2,9.750124512E0,9.751065373E0
1.371461404E1,-1.222956848E-1,-3.727249146E-2,9.776320038E0,9.777155975E0
1.372458304E1,-1.252894592E-1,-1.302291870E-2,9.794582062E0,9.795392019E0
1.373455204E1,-1.321751404E-1,-1.182540894E-2,9.800719299E0,9.801617667E0
1.374452104E1,-1.348695374E-1,-1.541793823E-2,9.787397003E0,9.788338347E0
1.375449004E1,-1.327738953E-1,-1.811233521E-2,9.789642334E0,9.790559432E0
1.376445904E1,-1.362167358E-1,-2.769241333E-2,9.773475952E0,9.774464387E0
1.377442704E1,-1.302291870E-1,-8.981323242E-3,9.774523773E0,9.775395404E0
1.378439604E1,-1.200503540E-1,-3.173400879E-2,9.773625641E0,9.774414422E0
1.379436504E1,-1.164578247E-1,-2.125579834E-2,9.781559143E0,9.782275477E0
1.380433304E1,-1.282832336E-1,-0.000000000E0,9.776469727E0,9.777311333E0
1.381430104E1,-1.384620667E-1,-1.511856079E-2,9.786947937E0,9.787939019E0
1.382426904E1,-1.299298096E-1,-2.709365845E-2,9.790241089E0,9.791140710E0
1.383423804E1,-1.175056458E-1,-1.721420288E-2,9.802665253E0,9.803384618E0
1.384420704E1,-1.245410156E-1,-1.616638184E-2,9.776918793E0,9.777725344E0
1.385417604E1,-1.263372803E-1,-1.706451416E-2,9.774224396E0,9.775055746E0
1.386414504E1,-1.306782532E-1,-2.110610962E-2,9.786049805E0,9.786945032E0
1.387411404E1,-1.320254517E-1,-1.526824951E-2,9.792785797E0,9.793687636E0
1.388408304E1,-1.200503540E-1,-1.212478638E-2,9.791887665E0,9.792631063E0
1.389405204E1,-1.402583313E-1,-1.092727661E-2,9.784103851E0,9.785115226E0
1.390402104E1,-1.429527283E-1,-6.586303711E-3,9.764794006E0,9.765842557E0
1.391399004E1,-1.178050232E-1,-2.514770508E-2,9.754914551E0,9.755658272E0
1.392395804E1,-1.320254517E-1,-1.392105103E-2,9.765392761E0,9.766295116E0
1.393392704E1,-1.338217163E-1,-1.646575928E-3,9.785750427E0,9.786665540E0
1.394389604E1,-1.251397705E-1,-2.110610962E-2,9.799970856E0,9.800792529E0
1.395386504E1,-1.230441284E-1,-2.574645996E-2,9.797575836E0,9.798382265E0
1.396383304E1,-1.249900818E-1,-7.634124756E-3,9.778415680E0,9.779217454E0
1.397380204E1,-1.197509766E-1,-1.960922241E-2,9.762249298E0,9.763003440E0
1.398377104E1,-1.311273193E-1,-2.065704346E-2,9.760153656E0,9.761056320E0
1.399373904E1,-1.275347900E-1,-1.556762695E-2,9.783056030E0,9.783899671E0
1.400370704E1,-1.314266968E-1,-3.742218018E-3,9.802216187E0,9.803097936E0
1.401367604E1,-1.210981750E-1,-2.484832764E-2,9.789193268E0,9.789973802E0
1.402364404E1,-1.381626892E-1,-3.472778320E-2,9.781559143E0,9.782596497E0
1.403361304E1,-1.299298096E-1,-3.248245239E-2,9.761351166E0,9.762269892E0
1.404358104E1,-1.139131165E-1,-1.167572021E-2,9.757758636E0,9.758430516E0
1.405354904E1,-1.210981750E-1,-1.661544800E-2,9.769883423E0,9.770648031E0
1.406351704E1,-1.252894592E-1,-2.918930054E-2,9.790540466E0,9.791385606E0
1.407348504E1,-1.350192261E-1,-2.544708252E-2,9.800419922E0,9.801382984E0
1.408345304E1,-1.329235840E-1,-3.038681030E-2,9.802216187E0,9.803164500E0
1.409342104E1,-1.243913269E-1,-1.287322998E-2,9.794582062E0,9.795380375E0
1.410338904E1,-1.281335449E-1,-2.918930054E-2,9.770332489E0,9.771216258E0
1.411335604E1,-1.291813660E-1,-2.185455322E-2,9.755662994E0,9.756542723E0
1.412332504E1,-1.169068909E-1,-2.080673218E-2,9.770332489E0,9.771054042E0
1.413329204E1,-1.318757629E-1,-2.754272461E-2,9.791139221E0,9.792066026E0
1.414326104E1,-1.272354126E-1,-1.032852173E-2,9.810748444E0,9.811578902E0
1.415323004E1,-1.324745178E-1,-1.347198486E-3,9.802515564E0,9.803410768E0
1.416319904E1,-1.324745178E-1,-1.212478638E-2,9.778565369E0,9.779470189E0
1.417316904E1,-1.386117554E-1,-1.272354126E-2,9.770631866E0,9.771623313E0
1.418313804E1,-1.296304321E-1,-3.248245239E-2,9.765243073E0,9.766157454E0
1.419310804E1,-1.413061523E-1,-9.430389404E-3,9.772128754E0,9.773154902E0
1.420307704E1,-1.206491089E-1,-1.541793823E-2,9.778864746E0,9.779621140E0
1.421304604E1,-1.176553345E-1,-5.239105225E-3,9.792037354E0,9.792745568E0
1.422301504E1,-1.218466187E-1,-2.454895020E-2,9.784403229E0,9.785192680E0
1.423298304E1,-1.312770081E-1,-2.230361938E-2,9.771529999E0,9.772437241E0
1.424295204E1,-1.417552185E-1,-2.484832764E-2,9.782906342E0,9.783964864E0
1.425292204E1,-1.276844788E-1,-2.065704346E-2,9.782756653E0,9.783611693E0
1.426289104E1,-1.423539734E-1,-3.008743286E-2,9.778715057E0,9.779797446E0
1.427286004E1,-1.252894592E-1,-2.529739380E-2,9.789941711E0,9.790776073E0
1.428283004E1,-1.224453735E-1,-6.137237549E-3,9.777966614E0,9.778735176E0
1.429279904E1,-1.252894592E-1,-3.143463135E-3,9.780211945E0,9.781014927E0
1.430276804E1,-1.155596924E-1,-5.688171387E-3,9.802665253E0,9.803348023E0
1.431273604E1,-1.196012878E-1,-2.559677124E-2,9.799970856E0,9.800734076E0
1.432270404E1,-1.450483704E-1,-1.302291870E-2,9.791737976E0,9.792820902E0
1.433267404E1,-1.401086426E-1,-7.634124756E-3,9.775870972E0,9.776877925E0
1.434264304E1,-1.130149841E-1,-1.990859985E-2,9.754166107E0,9.754841115E0
1.435261204E1,-1.104702759E-1,-1.811233521E-2,9.773625641E0,9.774266720E0
1.436258104E1,-1.230441284E-1,-2.649490356E-2,9.786049805E0,9.786859180E0
1.437255004E1,-1.246907043E-1,-1.107696533E-2,9.813891907E0,9.814690256E0
1.438252004E1,-1.257385254E-1,-1.212478638E-2,9.801916809E0,9.802730758E0
1.439249004E1,-1.239422607E-1,-1.197509766E-2,9.765542450E0,9.766336285E0
1.440246004E1,-1.185534668E-1,-1.646575928E-3,9.747879181E0,9.748600215E0
1.441243004E1,-1.312770081E-1,4.490661621E-4,9.747729492E0,9.748613445E0
1.442240004E1,-1.469943237E-1,-1.796264648E-3,9.793683929E0,9.794787158E0
1.443237004E1,-1.432521057E-1,-8.981323242E-3,9.826615448E0,9.827663659E0
1.444234004E1,-1.384620667E-1,-1.496887207E-2,9.811197510E0,9.812185913E0
1.445231104E1,-1.213975525E-1,-2.140548706E-2,9.781559143E0,9.782335858E0
1.446228104E1,-1.302291870E-1,-5.089416504E-3,9.750723267E0,9.751594217E0
1.447225004E1,-1.242416382E-1,-1.511856079E-2,9.749376068E0,9.750179397E0
1.448221904E1,-1.284329224E-1,-2.020797729E-2,9.780211945E0,9.781076069E0
1.449218904E1,-1.517843628E-1,-1.796264648E-2,9.806257782E0,9.807448844E0
1.450215804E1,-1.535806274E-1,-3.173400879E-2,9.821076965E0,9.822328991E0
1.451212704E1,-1.339714050E-1,-1.736389160E-2,9.786798248E0,9.787730574E0
1.452209504E1,-1.266366577E-1,-2.799179077E-2,9.762848053E0,9.763709464E0
1.453206404E1,-1.327738953E-1,-1.796264648E-3,9.746831360E0,9.747735824E0
1.454203304E1,-1.264869690E-1,-1.047821045E-2,9.789492645E0,9.790315368E0
1.455200304E1,-1.172062683E-1,-1.122665405E-2,9.800719299E0,9.801426536E0
1.456197204E1,-1.332229614E-1,-3.382965088E-2,9.794132996E0,9.795097444E0
1.457194104E1,-1.212478638E-1,-2.679428101E-2,9.793384552E0,9.794171734E0
1.458191004E1,-1.178050232E-1,-1.571731567E-2,9.787546692E0,9.788268248E0
1.459187904E1,-1.323248291E-1,-1.451980591E-2,9.777966614E0,9.778872726E0
1.460184846E1,-1.309776306E-1,-1.466949463E-2,9.764344940E0,9.765234377E0
1.461181746E1,-1.239422607E-1,-1.347198486E-2,9.779762878E0,9.780557506E0
1.462178646E1,-1.245410156E-1,-1.586700439E-2,9.779912567E0,9.780718381E0
1.463175446E1,-1.381626892E-1,-2.065704346E-2,9.792785797E0,9.793782176E0
1.464172346E1,-1.245410156E-1,-1.886077881E-2,9.800868988E0,9.801678383E0
1.465169346E1,-1.255888367E-1,-1.601669312E-2,9.776320038E0,9.777139795E0
1.466166246E1,-1.422042847E-1,-3.891906738E-3,9.778864746E0,9.779899433E0
1.467163046E1,-1.372645569E-1,-2.125579834E-2,9.772278442E0,9.773265540E0
1.468159946E1,-1.290316772E-1,-2.005828857E-2,9.769584045E0,9.770456690E0
1.469156846E1,-1.315763855E-1,-7.933502197E-3,9.783056030E0,9.783944020E0
1.470153746E1,-1.243913269E-1,-2.649490356E-2,9.790540466E0,9.791366493E0
1.471150646E1,-1.323248291E-1,-1.721420288E-2,9.789941711E0,9.790851082E0
1.472147646E1,-1.333726501E-1,-1.511856079E-2,9.789342957E0,9.790263140E0
1.473144546E1,-1.209484863E-1,-2.200424194E-2,9.774374084E0,9.775147133E0
1.474141546E1,-1.369651794E-1,-3.353027344E-2,9.781259766E0,9.782276133E0
1.475138446E1,-1.166075134E-1,-1.721420288E-2,9.781559143E0,9.782269313E0
1.476135346E1,-1.196012878E-1,-7.035369873E-3,9.783505096E0,9.784238649E0
1.477132246E1,-1.224453735E-1,-9.580078125E-3,9.782457275E0,9.783228250E0
1.478129146E1,-1.314266968E-1,-1.841171265E-2,9.807455292E0,9.808353137E0
1.479126046E1,-1.387614441E-1,-1.960922241E-2,9.789193268E0,9.790196326E0
1.480123046E1,-1.351689148E-1,-2.859054565E-2,9.779313812E0,9.780289704E0
1.481119946E1,-1.228944397E-1,-1.975891113E-2,9.757908325E0,9.758702185E0
1.482116746E1,-1.284329224E-1,-5.837860107E-3,9.775272217E0,9.776117635E0
1.483113546E1,-1.344204712E-1,-1.766326904E-2,9.783205719E0,9.784145082E0
1.484110346E1,-1.209484863E-1,-1.736389160E-2,9.796977081E0,9.797739023E0
1.485107246E1,-1.188528442E-1,-8.981323242E-3,9.777667236E0,9.778393695E0
1.486104146E1,-1.230441284E-1,-1.437011719E-2,9.775870972E0,9.776655850E0
1.487101046E1,-1.191522217E-1,-1.092727661E-2,9.762249298E0,9.762982537E0
1.488097946E1,-1.261875916E-1,-2.469863892E-2,9.773326263E0,9.774172066E0
1.489094946E1,-1.396595764E-1,-1.466949463E-2,9.773176575E0,9.774185406E0
1.490091746E1,-1.311273193E-1,-2.544708252E-2,9.782307587E0,9.783219493E0
1.491088646E1,-1.411564636E-1,-2.604583740E-2,9.789642334E0,9.790694590E0
1.492085546E1,-1.294807434E-1,-1.736389160E-2,9.778116302E0,9.778988966E0
1.493082546E1,-1.215472412E-1,-1.556762695E-2,9.785301361E0,9.786068608E0
1.494079546E1,-1.483415222E-1,-2.305206299E-2,9.783205719E0,9.784357452E0
1.495076546E1,-1.305285645E-1,-2.484832764E-2,9.772278442E0,9.773181729E0
1.496073446E1,-1.212478638E-1,-1.601669312E-2,9.752818909E0,9.753585712E0
1.497070446E1,-1.399589539E-1,-4.490661621E-3,9.763746185E0,9.764750291E0
1.498067546E1,-1.213975525E-1,-9.879455566E-3,9.792037354E0,9.792794826E0
1.499064446E1,-1.181044006E-1,2.844085693E-3,9.805509338E0,9.806220991E0
1.500061446E1,-1.278341675E-1,-6.286926270E-3,9.787846069E0,9.788682842E0
1.501058446E1,-1.252894592E-1,-2.320175171E-2,9.776170349E0,9.777000689E0
1.502055546E1,-1.357676697E-1,-1.901046753E-2,9.773326263E0,9.774287724E0
1.503052446E1,-1.384620667E-1,-2.260299683E-2,9.769584045E0,9.770591336E0
1.504049446E1,-1.408570862E-1,-3.188369751E-2,9.770033112E0,9.771100465E0
1.505046446E1,-1.294807434E-1,-2.709365845E-2,9.776769104E0,9.777664007E0
1.506043546E1,-1.182540894E-1,5.987548828E-4,9.789941711E0,9.790655908E0
1.507040546E1,-1.091230774E-1,6.286926270E-3,9.784403229E0,9.785013741E0
1.508037546E1,-1.246907043E-1,-8.981323242E-4,9.793683929E0,9.794477704E0
1.509034546E1,-1.221459961E-1,-2.245330811E-2,9.784103851E0,9.784892026E0
1.510031446E1,-1.282832336E-1,-4.071533203E-2,9.790839844E0,9.791764865E0
1.511028446E1,-1.363664246E-1,-4.161346436E-2,9.770482178E0,9.771522372E0
1.512025446E1,-1.387614441E-1,-3.427871704E-2,9.753267975E0,9.754315248E0
1.513022346E1,-1.164578247E-1,-2.260299683E-2,9.779014435E0,9.779733976E0
1.514019346E1,-1.176553345E-1,-1.002914429E-2,9.791139221E0,9.791851235E0
1.515016346E1,-1.197509766E-1,4.939727783E-3,9.825867004E0,9.826597941E0
1.516013246E1,-1.371148682E-1,5.987548828E-3,9.814041595E0,9.815001211E0
1.517010246E1,-1.291813660E-1,-4.191284180E-3,9.795031128E0,9.795883839E0
1.518007246E1,-1.270857239E-1,-8.681945801E-3,9.751920776E0,9.752752688E0
1.519004246E1,-1.365161133E-1,-3.038681030E-2,9.753267975E0,9.754270665E0
1.520001246E1,-1.399589539E-1,-2.260299683E-2,9.770931244E0,9.771959720E0
1.520998246E1,-1.218466187E-1,-4.296066284E-2,9.782606964E0,9.783460085E0
1.521995246E1,-1.200503540E-1,-3.143463135E-2,9.803862762E0,9.804648147E0
1.522992246E1,-1.237925720E-1,-3.742218018E-3,9.798773346E0,9.799555995E0
1.523989246E1,-1.098715210E-1,-8.382568359E-3,9.794282684E0,9.794902517E0
1.524986246E1,-1.136137390E-1,1.496887207E-3,9.777966614E0,9.778626766E0
1.525983146E1,-1.454974365E-1,-1.811233521E-2,9.783355408E0,9.784454026E0
1.526980146E1,-1.160087585E-1,-2.649490356E-2,9.781559143E0,9.782282928E0
1.527977146E1,-1.279838562E-1,-2.499801636E-2,9.777816925E0,9.778686445E0
1.528974146E1,-1.240919495E-1,-1.586700439E-2,9.774224396E0,9.775024967E0
1.529971146E1,-1.139131165E-1,-1.721420288E-2,9.789342957E0,9.790020840E0
1.530968146E1,-1.074765015E-1,-1.646575928E-2,9.809251556E0,9.809854149E0
1.531965146E1,-1.254391479E-1,-1.676513672E-2,9.798473969E0,9.799291207E0
1.532962146E1,-1.236428833E-1,-3.278182983E-2,9.770931244E0,9.771768498E0
1.533959146E1,-1.155596924E-1,-2.230361938E-2,9.769134979E0,9.769843895E0
1.534956046E1,-1.254391479E-1,-2.350112915E-2,9.769434357E0,9.770267905E0
1.535952946E1,-1.175056458E-1,-1.032852173E-2,9.781708832E0,9.782420044E0
1.536949846E1,-1.261875916E-1,-1.212478638E-2,9.785001984E0,9.785823120E0
1.537946746E1,-1.357676697E-1,-1.272354126E-2,9.801318054E0,9.802266592E0
1.538943546E1,-1.260379028E-1,-1.661544800E-2,9.792935486E0,9.793760619E0
1.539940446E1,-1.374142456E-1,-2.275268555E-2,9.774224396E0,9.775216770E0
1.540937446E1,-1.426533508E-1,-3.891906738E-3,9.748627625E0,9.749672081E0
1.541934246E1,-1.411564636E-1,-1.766326904E-2,9.759405212E0,9.760441959E0
1.542931246E1,-1.254391479E-1,-1.945953369E-2,9.781259766E0,9.782083431E0
1.543928146E1,-1.209484863E-1,7.484436035E-4,9.806557159E0,9.807303014E0
1.544925046E1,-1.206491089E-1,-1.736389160E-2,9.794132996E0,9.794891467E0
1.545922046E1,-1.148112488E-1,-1.856140137E-2,9.796528015E0,9.797218345E0
1.546918846E1,-1.411564636E-1,-2.260299683E-2,9.776769104E0,9.777814181E0
1.547915846E1,-1.543290710E-1,-2.065704346E-2,9.762249298E0,9.763490950E0
1.548912846E1,-1.469943237E-1,-1.751358032E-2,9.761500854E0,9.762623264E0
1.549909746E1,-1.490899658E-1,-1.901046753E-2,9.791588287E0,9.792741721E0
1.550906646E1,-1.510359192E-1,-3.697311401E-2,9.810449066E0,9.811681290E0
1.551903646E1,-1.311273193E-1,-1.930984497E-2,9.785750427E0,9.786647979E0
1.552900546E1,-1.089733887E-1,-2.140548706E-2,9.783205719E0,9.783836034E0
1.553897446E1,-1.218466187E-1,-3.442840576E-3,9.772877197E0,9.773637356E0
1.554894446E1,-1.164578247E-1,-1.601669312E-2,9.785900116E0,9.786606155E0
1.555891446E1,-1.360670471E-1,-2.724334717E-2,9.775122528E0,9.776107450E0
1.556888346E1,-1.477427673E-1,-2.305206299E-2,9.780211945E0,9.781354968E0
1.557885246E1,-1.299298096E-1,-1.422042847E-2,9.794582062E0,9.795454137E0
1.558882246E1,-1.496887207E-1,-6.286926270E-3,9.790091400E0,9.791237708E0
1.559879204E1,-1.151106262E-1,-1.631607056E-2,9.774972839E0,9.775664207E0
1.560876104E1,-1.237925720E-1,-1.826202393E-2,9.771679688E0,9.772480853E0
1.561873104E1,-1.134640503E-1,-2.544708252E-2,9.786199493E0,9.786890322E0
1.562870104E1,-1.396595764E-1,-2.709365845E-2,9.782157898E0,9.783192322E0
1.563867104E1,-1.399589539E-1,-2.110610962E-2,9.774972839E0,9.775997544E0
1.564864104E1,-1.368154907E-1,-2.948867798E-2,9.760003967E0,9.761007402E0
1.565861104E1,-1.306782532E-1,-1.481918335E-2,9.785451050E0,9.786334792E0
1.566858204E1,-1.284329224E-1,-1.796264648E-3,9.805359650E0,9.806200901E0
1.567855204E1,-1.246907043E-1,-1.002914429E-2,9.799072723E0,9.799871152E0
1.568852304E1,-1.308279419E-1,-1.287322998E-2,9.798623657E0,9.799505459E0
1.569849304E1,-1.359173584E-1,-1.047821045E-2,9.783654785E0,9.784604452E0
1.570846304E1,-1.416055298E-1,-2.993774414E-2,9.767787781E0,9.768860042E0
1.571843204E1,-1.429527283E-1,-1.676513672E-2,9.772128754E0,9.773188678E0
1.572840204E1,-1.284329224E-1,-1.122665405E-2,9.771679688E0,9.772530121E0
1.573837204E1,-1.318757629E-1,-2.469863892E-2,9.789792023E0,9.790711368E0
1.574834104E1,-1.339714050E-1,-2.200424194E-2,9.787696381E0,9.788637952E0
1.575831004E1,-1.252894592E-1,-1.332229614E-2,9.786349182E0,9.787160224E0
1.576827904E1,-1.212478638E-1,-8.532257080E-3,9.795929260E0,9.796683312E0
1.577824804E1,-1.210981750E-1,-2.604583740E-2,9.769584045E0,9.770369265E0
1.578821804E1,-1.423539734E-1,-2.844085693E-2,9.764644318E0,9.765723331E0
1.579818704E1,-1.233435059E-1,-1.826202393E-2,9.764943695E0,9.765739731E0
1.580815604E1,-1.386117554E-1,-7.484436035E-3,9.786498871E0,9.787483302E0
1.581812504E1,-1.389111328E-1,-1.856140137E-2,9.800719299E0,9.801721258E0
1.582809304E1,-1.095721436E-1,-2.395019531E-2,9.794132996E0,9.794775179E0
1.583806204E1,-1.326242065E-1,-1.481918335E-2,9.787247314E0,9.788157068E0
1.584803204E1,-1.246907043E-1,-2.963836670E-2,9.773176575E0,9.774016910E0
1.585800204E1,-1.191522217E-1,-1.616638184E-2,9.769134979E0,9.769874966E0
1.586797004E1,-1.366658020E-1,1.167572021E-2,9.782756653E0,9.783718189E0
1.587794004E1,-1.425036621E-1,-5.688171387E-3,9.779613190E0,9.780653035E0
1.588790904E1,-1.404080200E-1,-2.469863892E-2,9.799521790E0,9.800558746E0
1.589787804E1,-1.106199646E-1,-1.781295776E-2,9.795929260E0,9.796570020E0
1.590784704E1,-1.251397705E-1,-2.993774414E-2,9.789043579E0,9.789889194E0
1.591781604E1,-1.297801208E-1,-3.173400879E-2,9.777218170E0,9.778130960E0
1.592778504E1,-1.303788757E-1,-3.412902832E-2,9.782756653E0,9.783684948E0
1.593775404E1,-1.447489929E-1,-1.856140137E-2,9.783355408E0,9.784443767E0
1.594772204E1,-1.202000427E-1,-3.248245239E-2,9.791887665E0,9.792679266E0
1.595769004E1,-1.314266968E-1,-2.709365845E-2,9.783205719E0,9.784125980E0
1.596765804E1,-1.348695374E-1,-1.107696533E-2,9.770482178E0,9.771419266E0
1.597762704E1,-1.281335449E-1,-1.706451416E-2,9.758207703E0,9.759063837E0
1.598759504E1,-1.209484863E-1,-1.257385254E-2,9.762698364E0,9.763455638E0
1.599756304E1,-1.218466187E-1,-5.987548828E-3,9.784852295E0,9.785612749E0
1.600753204E1,-1.231938171E-1,-3.083587646E-2,9.793234863E0,9.794058232E0
1.601750004E1,-1.371148682E-1,-3.128494263E-2,9.792636108E0,9.793645960E0
1.602746904E1,-1.383123779E-1,-1.257385254E-2,9.784103851E0,9.785089503E0
1.603743704E1,-1.287322998E-1,-1.496887207E-2,9.769883423E0,9.770742969E0
1.604740404E1,-1.288819885E-1,-2.005828857E-2,9.782756653E0,9.783626149E0
1.605737304E1,-1.305285645E-1,-2.499801636E-2,9.771679688E0,9.772583411E0
1.606734104E1,-1.380130005E-1,-1.122665405E-2,9.803264008E0,9.804241879E0
1.607730904E1,-1.381626892E-1,3.592529297E-3,9.789193268E0,9.790168879E0
1.608727804E1,-1.210981750E-1,-3.592529297E-3,9.776918793E0,9.777669393E0
1.609724704E1,-1.323248291E-1,-2.634521484E-2,9.756411438E0,9.757344315E0
1.610721404E1,-1.260379028E-1,-1.631607056E-2,9.763746185E0,9.764573280E0
1.611718404E1,-1.330732727E-1,-1.347198486E-2,9.776619415E0,9.777534310E0
1.612715204E1,-1.324745178E-1,-2.769241333E-2,9.775272217E0,9.776209044E0
1.613712004E1,-1.299298096E-1,-2.484832764E-2,9.789492645E0,9.790386379E0
1.614708904E1,-1.297801208E-1,-1.766326904E-2,9.797875214E0,9.798750613E0
1.615705704E1,-1.230441284E-1,-1.257385254E-2,9.776020660E0,9.776803052E0
