"Time (s)","Acceleration x (m/s^2)","Acceleration y (m/s^2)","Acceleration z (m/s^2)","Absolute acceleration (m/s^2)"
1.438291671E-3,-2.409988403E-2,-9.790690155E0,4.182302856E-1,9.799648519E0
1.140729166E-2,-2.215393066E-2,-9.808054047E0,4.293072510E-1,9.817470127E0
2.137629167E-2,1.796264648E-3,-9.779762878E0,4.352947998E-1,9.789445681E0
3.134529167E-2,-3.293151855E-2,-9.811945953E0,4.165837097E-1,9.820840588E0
4.131429167E-2,-2.739303589E-2,-9.781409454E0,4.138893127E-1,9.790200491E0
5.128229166E-2,-3.906875610E-2,-9.803114319E0,4.140390015E-1,9.811931768E0
6.125129167E-2,-2.380050659E-2,-9.796528015E0,4.149371338E-1,9.805340404E0
7.122029168E-2,-2.874023438E-2,-9.806706848E0,4.245172119E-1,9.815932970E0
8.119029168E-2,-2.814147949E-2,-9.807604980E0,4.330494690E-1,9.817201192E0
9.115929167E-2,-3.382965088E-2,-9.794881439E0,4.129911804E-1,9.803642617E0
1.011282917E-1,-4.311035156E-2,-9.802365875E0,4.369413757E-1,9.812194098E0
1.110972917E-1,-4.041595459E-2,-9.796977081E0,4.321513367E-1,9.806586978E0
1.210662917E-1,-3.128494263E-2,-9.793534241E0,4.411326599E-1,9.803514150E0
1.310351667E-1,-1.586700439E-2,-9.794432373E0,4.194277954E-1,9.803421696E0
1.410041667E-1,-2.619552612E-2,-9.802066498E0,4.185296631E-1,9.811032612E0
1.509731667E-1,-2.903961182E-2,-9.782906342E0,4.156855774E-1,9.791776871E0
1.609421667E-1,-2.589614868E-2,-9.795779572E0,4.071533203E-1,9.804271612E0
1.709111667E-1,-2.754272461E-2,-9.788295135E0,4.212240601E-1,9.797393019E0
1.808801667E-1,-1.990859985E-2,-9.788594513E0,4.334985352E-1,9.798209013E0
1.908491667E-1,-3.397933960E-2,-9.803862762E0,4.085005188E-1,9.812428463E0
2.008181667E-1,-1.407073975E-2,-9.794881439E0,4.197271729E-1,9.803880420E0
2.107881667E-1,-1.766326904E-2,-9.786349182E0,4.346960449E-1,9.796014647E0
2.207581667E-1,-2.694396973E-3,-9.788295135E0,4.399351501E-1,9.798176966E0
2.307271667E-1,-8.981323242E-3,-9.793983307E0,4.279600525E-1,9.803333080E0
2.406971667E-1,-4.730163574E-2,-9.784852295E0,4.177812195E-1,9.793881408E0
2.506661667E-1,-3.502716064E-2,-9.799970856E0,4.098477173E-1,9.808599840E0
2.606351667E-1,-3.742218018E-2,-9.781858521E0,4.110452271E-1,9.790562533E0
2.706041667E-1,-2.724334717E-2,-9.785600739E0,4.019142151E-1,9.793888862E0
2.805731667E-1,-3.891906738E-2,-9.805509338E0,4.246669006E-1,9.814778146E0
2.905421667E-1,-5.837860107E-3,-9.803713074E0,4.363426208E-1,9.813420352E0
3.005121667E-1,-1.601669312E-2,-9.770482178E0,4.276606750E-1,9.779850314E0
3.104811667E-1,-2.724334717E-2,-9.795779572E0,4.219725037E-1,9.804901856E0
3.204501667E-1,-3.083587646E-2,-9.792336731E0,4.318519592E-1,9.801903163E0
3.304181667E-1,-3.472778320E-2,-9.779164124E0,4.143383789E-1,9.787999452E0
3.403871667E-1,-2.335144043E-2,-9.797426147E0,4.147874451E-1,9.806230317E0
3.503551667E-1,-2.619552612E-2,-9.804162140E0,4.236190796E-1,9.813344720E0
3.603241667E-1,-2.335144043E-2,-9.787696381E0,4.239184570E-1,9.796900152E0
3.702921667E-1,-1.796264648E-2,-9.789043579E0,4.207749939E-1,9.798099226E0
3.802601667E-1,-2.320175171E-2,-9.795629883E0,4.272116089E-1,9.804968785E0
3.902281667E-1,-3.742218018E-2,-9.794282684E0,4.278103638E-1,9.803692948E0
4.001971667E-1,-2.454895020E-2,-9.788893890E0,4.185296631E-1,9.797867795E0
4.101651667E-1,-2.260299683E-2,-9.775272217E0,4.129911804E-1,9.784018577E0
4.201331667E-1,-1.990859985E-2,-9.798324280E0,4.206253052E-1,9.807368694E0
4.301011667E-1,-2.290237427E-2,-9.785001984E0,4.222718811E-1,9.794136097E0
4.400691667E-1,-2.020797729E-2,-9.797725525E0,4.251159668E-1,9.806964740E0
4.500371667E-1,-2.454895020E-2,-9.800120544E0,4.364923096E-1,9.809867016E0
4.600061667E-1,-3.248245239E-2,-9.792486420E0,4.320016479E-1,9.802064620E0
4.699741667E-1,-1.646575928E-2,-9.802964630E0,4.360432434E-1,9.812671419E0
4.799421667E-1,-6.137237549E-3,-9.788594513E0,4.385879517E-1,9.798417198E0
4.899101667E-1,-1.137634277E-2,-9.797126770E0,4.315525818E-1,9.806633469E0
4.998791667E-1,-2.679428101E-2,-9.806706848E0,4.056564331E-1,9.815129866E0
5.098471667E-1,-3.682342529E-2,-9.798174591E0,4.176315308E-1,9.807140122E0
5.198161667E-1,-3.173400879E-2,-9.794282684E0,4.245172119E-1,9.803529732E0
5.297851667E-1,-2.903961182E-2,-9.799970856E0,4.297563171E-1,9.809432326E0
5.397541667E-1,-4.131408691E-2,-9.793534241E0,4.328997803E-1,9.803184278E0
5.497221667E-1,-1.407073975E-2,-9.779014435E0,4.203259277E-1,9.788053698E0
5.596901667E-1,-1.661544800E-2,-9.807006226E0,4.188290405E-1,9.815959706E0
5.696581667E-1,-1.481918335E-2,-9.781409454E0,4.204756165E-1,9.790454038E0
5.796271667E-1,-2.080673218E-2,-9.795929260E0,4.405339050E-1,9.805851983E0
5.895951667E-1,-2.978805542E-2,-9.782307587E0,4.303550720E-1,9.791814670E0
5.995641667E-1,-4.700225830E-2,-9.790241089E0,4.233197021E-1,9.799501485E0
6.095311667E-1,-2.888992310E-2,-9.786049805E0,4.240681458E-1,9.795276372E0
6.194991667E-1,-1.916015625E-2,-9.784253540E0,4.108955383E-1,9.792896384E0
6.294671667E-1,-2.664459229E-2,-9.797426147E0,4.056564331E-1,9.805856729E0
6.394361667E-1,-2.649490356E-2,-9.786049805E0,4.219725037E-1,9.795179098E0
6.494041667E-1,-1.856140137E-2,-9.811197510E0,4.264631653E-1,9.820479211E0
6.593721667E-1,-2.125579834E-2,-9.793833618E0,4.493655396E-1,9.804160246E0
6.693411667E-1,-3.427871704E-2,-9.798174591E0,4.421804810E-1,9.808206968E0
6.793101667E-1,-3.023712158E-2,-9.786049805E0,4.276606750E-1,9.795436627E0
6.892781667E-1,-8.382568359E-3,-9.793234863E0,4.213737488E-1,9.802299485E0
6.992471667E-1,-2.365081787E-2,-9.779164124E0,4.180805969E-1,9.788125546E0
7.092151667E-1,-2.454895020E-2,-9.786648560E0,4.137396240E-1,9.795421030E0
7.191831667E-1,-1.152603149E-2,-9.777667236E0,4.227209473E-1,9.786807571E0
7.291521667E-1,-2.948867798E-2,-9.791438599E0,4.302053833E-1,9.800929348E0
7.391201667E-1,-4.460723877E-2,-9.800120544E0,4.333488464E-1,9.809798352E0
7.490891667E-1,-3.787124634E-2,-9.796378326E0,4.269122314E-1,9.805749161E0
7.590581667E-1,-2.888992310E-2,-9.794282684E0,4.305047607E-1,9.803782039E0
7.690261667E-1,-1.377136230E-2,-9.798623657E0,4.260140991E-1,9.807889846E0
7.789961667E-1,-1.930984497E-2,-9.793534241E0,4.165837097E-1,9.802409285E0
7.889641667E-1,-2.859054565E-2,-9.789342957E0,4.249662781E-1,9.798604456E0
7.989321667E-1,-1.871109009E-2,-9.787097626E0,4.077520752E-1,9.795605739E0
8.089011667E-1,-2.754272461E-2,-9.779313812E0,4.108955383E-1,9.787981017E0
8.188691667E-1,-4.790039063E-2,-9.801767120E0,4.168830872E-1,9.810745366E0
8.288371667E-1,-3.697311401E-2,-9.790690155E0,4.200265503E-1,9.799765458E0
8.388041667E-1,-2.784210205E-2,-9.788744202E0,4.312532043E-1,9.798278806E0
8.487711667E-1,1.332229614E-2,-9.791288910E0,4.240681458E-1,9.800477019E0
8.587391667E-1,1.392105103E-2,-9.782756653E0,4.200265503E-1,9.791779400E0
8.687081667E-1,-2.005828857E-2,-9.807754669E0,4.224215698E-1,9.816867829E0
8.786761667E-1,-3.682342529E-2,-9.788594513E0,4.243675232E-1,9.797858251E0
8.886451667E-1,-4.909790039E-2,-9.782906342E0,4.264631653E-1,9.792320354E0
8.986141667E-1,-4.520599365E-2,-9.778116302E0,3.954776001E-1,9.786215026E0
9.085811667E-1,-4.805007935E-2,-9.787097626E0,4.102967834E-1,9.795811972E0
9.185501667E-1,-2.335144043E-2,-9.791139221E0,4.095483398E-1,9.799728689E0
9.285181667E-1,-3.742218018E-3,-9.787995758E0,4.188290405E-1,9.796953237E0
9.384871667E-1,-2.020797729E-2,-9.805359650E0,4.323010254E-1,9.814905522E0
9.484551667E-1,-3.442840576E-2,-9.793085175E0,4.257147217E-1,9.802394380E0
9.584241667E-1,-3.278182983E-2,-9.795031128E0,4.409829712E-1,9.805007671E0
9.683921667E-1,-4.340972900E-2,-9.796528015E0,4.152365112E-1,9.805420282E0
9.783601667E-1,-4.819976807E-2,-9.798174591E0,4.170327759E-1,9.807163957E0
9.883281667E-1,-2.409988403E-2,-9.783505096E0,4.218228149E-1,9.792624126E0
9.982961667E-1,-1.736389160E-2,-9.791139221E0,4.215234375E-1,9.800224016E0
1.008265167E0,-1.571731567E-2,-9.797725525E0,4.269122314E-1,9.807034544E0
1.018233167E0,-1.930984497E-2,-9.797875214E0,4.330494690E-1,9.807459580E0
1.028200167E0,-1.287322998E-2,-9.793833618E0,4.460723877E-1,9.803995269E0
1.038169167E0,-3.487747192E-2,-9.786498871E0,4.328997803E-1,9.796130808E0
1.048137167E0,-2.065704346E-2,-9.785750427E0,4.056564331E-1,9.794176600E0
1.058106167E0,-1.916015625E-2,-9.794881439E0,4.183799744E-1,9.803831461E0
1.068074167E0,-3.757186890E-2,-9.789642334E0,4.147874451E-1,9.798497706E0
1.078043167E0,-2.619552612E-2,-9.801018677E0,4.230203247E-1,9.810178362E0
1.088013167E0,-2.484832764E-2,-9.795779572E0,4.269122314E-1,9.805109327E0
1.097982167E0,-1.886077881E-2,-9.787546692E0,4.444258118E-1,9.797649732E0
1.107950167E0,-1.945953369E-2,-9.804611206E0,4.236190796E-1,9.813777698E0
1.117918167E0,-2.320175171E-2,-9.791288910E0,4.203259277E-1,9.800334215E0
1.127887167E0,-3.098556519E-2,-9.792336731E0,4.194277954E-1,9.801364111E0
1.137858667E0,-3.218307495E-2,-9.795031128E0,4.108955383E-1,9.803698572E0
1.147826667E0,-2.110610962E-2,-9.805359650E0,4.041595459E-1,9.813708181E0
1.157795667E0,-2.469863892E-2,-9.799671478E0,4.272116089E-1,9.809010188E0
1.167765667E0,-1.511856079E-2,-9.798174591E0,4.177812195E-1,9.807089019E0
1.177733667E0,-4.191284180E-3,-9.790690155E0,4.284091187E-1,9.800059472E0
1.187702667E0,-4.505630493E-2,-9.795180817E0,4.236190796E-1,9.804440342E0
1.197670667E0,-2.649490356E-2,-9.790241089E0,4.264631653E-1,9.799560877E0
1.207638667E0,-2.020797729E-2,-9.798174591E0,4.299060059E-1,9.807622181E0
1.217606667E0,-1.886077881E-2,-9.794881439E0,4.248165894E-1,9.804107673E0
1.227574667E0,-1.945953369E-2,-9.802365875E0,4.209246826E-1,9.811418502E0
1.237542667E0,-2.424957275E-2,-9.798324280E0,4.251159668E-1,9.807572091E0
1.247510667E0,-3.697311401E-2,-9.777218170E0,4.210743713E-1,9.786350994E0
1.257479667E0,-2.978805542E-2,-9.786349182E0,4.206253052E-1,9.795429714E0
1.267447667E0,-4.206253052E-2,-9.789792023E0,4.213737488E-1,9.798946522E0
1.277415667E0,-3.577560425E-2,-9.788444824E0,4.273612976E-1,9.797834947E0
1.287383667E0,-1.691482544E-2,-9.794432373E0,4.390370178E-1,9.804281979E0
1.297352667E0,-2.230361938E-2,-9.808652802E0,4.299060059E-1,9.818094846E0
1.307320667E0,-2.978805542E-2,-9.784852295E0,4.053570557E-1,9.793290361E0
1.317289667E0,-2.020797729E-2,-9.788145447E0,4.111949158E-1,9.796799524E0
1.327257667E0,-3.008743286E-2,-9.784852295E0,4.019142151E-1,9.793149377E0
1.337225667E0,-2.604583740E-2,-9.786798248E0,4.122427368E-1,9.795511340E0
1.347193667E0,-2.155517578E-2,-9.784103851E0,4.227209473E-1,9.793255118E0
1.357161667E0,-2.305206299E-2,-9.789941711E0,4.147874451E-1,9.798751897E0
1.367129667E0,-1.646575928E-2,-9.795031128E0,4.252656555E-1,9.804272375E0
1.377098667E0,-2.185455322E-2,-9.771829376E0,4.342469788E-1,9.781497708E0
1.387067667E0,-4.296066284E-2,-9.785900116E0,4.231700134E-1,9.795139589E0
1.397036667E0,-2.799179077E-2,-9.793983307E0,4.227209473E-1,9.803141617E0
1.407005667E0,-3.023712158E-2,-9.795779572E0,4.327500916E-1,9.805380377E0
1.416974667E0,-1.496887207E-2,-9.783505096E0,4.132905579E-1,9.792242089E0
1.426943667E0,-2.155517578E-2,-9.790241089E0,4.123924255E-1,9.798946511E0
1.436912667E0,-1.571731567E-2,-9.790241089E0,4.165837097E-1,9.799112694E0
1.446881667E0,-1.197509766E-2,-9.792785797E0,4.391867065E-1,9.802636484E0
1.456851667E0,-2.335144043E-2,-9.785750427E0,4.528083801E-1,9.796248881E0
1.466820667E0,-2.454895020E-2,-9.802515564E0,4.291575623E-1,9.811936111E0
1.476789667E0,-2.963836670E-2,-9.788594513E0,4.210743713E-1,9.797691799E0
1.486758667E0,-2.604583740E-2,-9.793833618E0,4.183799744E-1,9.802800474E0
1.496727667E0,-1.601669312E-2,-9.788145447E0,4.305047607E-1,9.797621251E0
1.506696667E0,-1.691482544E-2,-9.792636108E0,4.297563171E-1,9.802076237E0
1.516665667E0,-1.990859985E-2,-9.787247314E0,4.150868225E-1,9.796065711E0
1.526633667E0,-3.188369751E-2,-9.773775330E0,4.061054993E-1,9.782260600E0
1.536602667E0,-3.188369751E-2,-9.803114319E0,4.287084961E-1,9.812535752E0
1.546570667E0,-5.239105225E-2,-9.788444824E0,4.173321533E-1,9.797477381E0
1.556539667E0,-4.999603271E-2,-9.773925018E0,4.134402466E-1,9.782793195E0
1.566508667E0,-2.829116821E-2,-9.796078949E0,4.050576782E-1,9.804490547E0
1.576476667E0,-3.278182983E-2,-9.791737976E0,4.167333984E-1,9.800656813E0
1.586445667E0,-1.526824951E-2,-9.790690155E0,4.266128540E-1,9.799992110E0
1.596413667E0,-5.388793945E-3,-9.782606964E0,4.438270569E-1,9.792671265E0
1.606382667E0,-7.035369873E-3,-9.789193268E0,4.400848389E-1,9.799083069E0
1.616351667E0,-1.137634277E-2,-9.789642334E0,4.339476013E-1,9.799262062E0
1.626319667E0,-3.278182983E-2,-9.785900116E0,4.318519592E-1,9.795479153E0
1.636288667E0,-3.562591553E-2,-9.801617432E0,4.306544495E-1,9.811138402E0
1.646257667E0,-4.056564331E-2,-9.790839844E0,4.198768616E-1,9.799922806E0
1.656227667E0,-3.023712158E-2,-9.794132996E0,4.315525818E-1,9.803682627E0
1.666195667E0,-4.041595459E-2,-9.785151672E0,4.132905579E-1,9.793959148E0
1.676164667E0,-2.888992310E-2,-9.785451050E0,4.194277954E-1,9.794478371E0
1.686133667E0,-2.739303589E-2,-9.788594513E0,4.282594299E-1,9.797996686E0
1.696102667E0,-1.945953369E-2,-9.803114319E0,4.366419983E-1,9.812853064E0
1.706070667E0,-2.365081787E-2,-9.799372101E0,4.326004028E-1,9.808944696E0
1.716039667E0,-1.841171265E-2,-9.799671478E0,4.165837097E-1,9.808539242E0
1.726007667E0,-1.362167358E-2,-9.799821167E0,4.113446045E-1,9.808459861E0
1.735975667E0,-1.422042847E-2,-9.809401245E0,4.096980286E-1,9.817963510E0
1.745943667E0,-2.634521484E-2,-9.804311829E0,4.113446045E-1,9.812972480E0
1.755911667E0,-2.664459229E-2,-9.781559143E0,4.320016479E-1,9.791130406E0
1.765880667E0,-2.439926147E-2,-9.781110077E0,4.204756165E-1,9.790174125E0
1.775849667E0,-2.529739380E-2,-9.788295135E0,4.257147217E-1,9.797581061E0
1.785818667E0,-2.664459229E-2,-9.787097626E0,4.188290405E-1,9.796091447E0
1.795788667E0,-3.996688843E-2,-9.779912567E0,4.107458496E-1,9.788615802E0
1.805757667E0,-2.200424194E-2,-9.789492645E0,3.965254211E-1,9.797544736E0
1.815726667E0,-3.038681030E-2,-9.797426147E0,4.114942932E-1,9.806110851E0
1.825696667E0,-3.382965088E-2,-9.785151672E0,4.077520752E-1,9.793702030E0
1.835665667E0,-4.281097412E-2,-9.775122528E0,4.090992737E-1,9.783773067E0
1.845633667E0,-2.290237427E-2,-9.801767120E0,4.143383789E-1,9.810547359E0
1.855601667E0,-3.263214111E-2,-9.802365875E0,4.346960449E-1,9.812053927E0
1.865570667E0,-8.981323242E-3,-9.790540466E0,4.477189636E-1,9.800776273E0
1.875539667E0,-8.083190918E-3,-9.800719299E0,4.328997803E-1,9.810278607E0
1.885508667E0,-1.362167358E-2,-9.799970856E0,4.439767456E-1,9.810032093E0
1.895477667E0,-3.173400879E-2,-9.795480194E0,4.153862000E-1,9.804335009E0
1.905446667E0,-1.975891113E-2,-9.791288910E0,4.095483398E-1,9.799870345E0
1.915414667E0,-3.637435913E-2,-9.794282684E0,4.203259277E-1,9.803365253E0
1.925382667E0,-2.454895020E-2,-9.800120544E0,4.225712585E-1,9.809257454E0
1.935350667E0,-8.831634521E-3,-9.798324280E0,4.248165894E-1,9.807533116E0
1.945319667E0,-1.347198486E-2,-9.787247314E0,4.182302856E-1,9.796188446E0
1.955287667E0,-1.362167358E-2,-9.777966614E0,4.209246826E-1,9.787031942E0
1.965256667E0,-3.008743286E-2,-9.803862762E0,4.173321533E-1,9.812787394E0
1.975224667E0,-4.969665527E-2,-9.788145447E0,4.230203247E-1,9.797408190E0
1.985193667E0,-3.427871704E-2,-9.786049805E0,4.255650330E-1,9.795358667E0
1.995162667E0,-7.334747314E-3,-9.776020660E0,4.242178345E-1,9.785223274E0
2.005132667E0,-1.811233521E-2,-9.783954163E0,4.201762390E-1,9.792989083E0
2.015100667E0,-2.604583740E-2,-9.802665253E0,4.195774841E-1,9.811675173E0
2.025069667E0,-2.859054565E-2,-9.784552917E0,4.082011414E-1,9.793105809E0
2.035038667E0,-3.218307495E-2,-9.790839844E0,4.128414917E-1,9.799592782E0
2.045007667E0,-2.050735474E-2,-9.788893890E0,4.343966675E-1,9.798549108E0
2.054975667E0,-3.472778320E-2,-9.816735992E0,4.233197021E-1,9.825920371E0
2.064944667E0,-3.787124634E-2,-9.790390778E0,4.152365112E-1,9.799265644E0
2.074913667E0,-2.589614868E-2,-9.789342957E0,4.207749939E-1,9.798416083E0
2.084882667E0,-2.499801636E-2,-9.788444824E0,4.183799744E-1,9.797413882E0
2.094851667E0,-3.188369751E-2,-9.807155914E0,4.251159668E-1,9.816417233E0
2.104820667E0,-7.634124756E-3,-9.790540466E0,4.364923096E-1,9.800268692E0
2.114789667E0,-2.080673218E-2,-9.796677704E0,4.411326599E-1,9.806626585E0
2.124758667E0,-3.053649902E-2,-9.795480194E0,4.454736328E-1,9.805652016E0
2.134725292E0,-2.589614868E-2,-9.769134979E0,4.317022705E-1,9.778703171E0
2.144693292E0,-2.918930054E-2,-9.785001984E0,4.243675232E-1,9.794243392E0
2.154662292E0,-4.026626587E-2,-9.785451050E0,4.120930481E-1,9.794207181E0
2.164631292E0,-5.508544922E-2,-9.790241089E0,4.237687683E-1,9.799562998E0
2.174600292E0,-4.071533203E-2,-9.787696381E0,4.028123474E-1,9.796066352E0
2.184569292E0,-1.422042847E-2,-9.789642334E0,4.167333984E-1,9.798518560E0
2.194538292E0,-1.197509766E-2,-9.789492645E0,4.261637878E-1,9.798771618E0
2.204507292E0,-1.466949463E-2,-9.796528015E0,4.369413757E-1,9.806278301E0
2.214476292E0,-7.634124756E-3,-9.783205719E0,4.421804810E-1,9.793196414E0
2.224445292E0,-2.634521484E-2,-9.774374084E0,4.370910645E-1,9.784177605E0
2.234413292E0,-1.302291870E-2,-9.805958405E0,4.330494690E-1,9.815524523E0
2.244382292E0,-4.565505981E-2,-9.812993774E0,4.275109863E-1,9.822407894E0
2.254351292E0,-3.517684937E-2,-9.778415680E0,4.234693909E-1,9.787644096E0
2.264321292E0,-2.589614868E-2,-9.790989532E0,4.303550720E-1,9.800477138E0
2.274290292E0,-3.053649902E-2,-9.774823151E0,4.073030090E-1,9.783352996E0
2.284259292E0,-2.230361938E-2,-9.802216187E0,4.231700134E-1,9.811371590E0
2.294228292E0,-1.945953369E-2,-9.787397003E0,4.227209473E-1,9.796540806E0
2.304197292E0,-2.604583740E-2,-9.793234863E0,4.246669006E-1,9.802472619E0
2.314167292E0,-2.859054565E-2,-9.791588287E0,4.201762390E-1,9.800641136E0
2.324136292E0,-3.712280273E-2,-9.776918793E0,4.203259277E-1,9.786020288E0
2.334105292E0,-3.817062378E-2,-9.794582062E0,4.137396240E-1,9.803391007E0
2.344074292E0,-2.724334717E-2,-9.797875214E0,3.906875610E-1,9.805699244E0
2.354044292E0,-2.903961182E-2,-9.784852295E0,3.942800903E-1,9.792835877E0
2.364013292E0,-1.826202393E-2,-9.784852295E0,4.233197021E-1,9.794022029E0
2.373983292E0,-2.978805542E-2,-9.792336731E0,4.228706360E-1,9.801508331E0
2.383952292E0,-2.903961182E-2,-9.776170349E0,4.352947998E-1,9.785899629E0
2.393920292E0,-2.784210205E-2,-9.784103851E0,4.210743713E-1,9.793200038E0
2.403889292E0,-2.424957275E-2,-9.793234863E0,4.153862000E-1,9.802070334E0
2.413857292E0,-4.041595459E-3,-9.807155914E0,4.309538269E-1,9.816620837E0
2.423825292E0,-1.706451416E-2,-9.779762878E0,4.242178345E-1,9.788974100E0
2.433794292E0,-2.844085693E-2,-9.792636108E0,4.234693909E-1,9.801829276E0
2.443762292E0,-2.963836670E-2,-9.783056030E0,4.263134766E-1,9.792385149E0
2.453731292E0,-2.649490356E-2,-9.802365875E0,4.291575623E-1,9.811791628E0
2.463700292E0,-2.814147949E-2,-9.786648560E0,4.297563171E-1,9.796120276E0
2.473669292E0,-2.724334717E-2,-9.791588287E0,4.246669006E-1,9.800830851E0
2.483638292E0,-1.167572021E-2,-9.801168365E0,3.978726196E-1,9.809247691E0
2.493607292E0,-3.053649902E-2,-9.788893890E0,4.231700134E-1,9.798083942E0
2.503577292E0,-3.278182983E-2,-9.793683929E0,4.083508301E-1,9.802248209E0
2.513547292E0,-3.323089600E-2,-9.790989532E0,4.026626587E-1,9.799322300E0
2.523517292E0,-2.649490356E-2,-9.770182800E0,4.234693909E-1,9.779391610E0
2.533486292E0,-3.143463135E-2,-9.788444824E0,4.287084961E-1,9.797878913E0
2.543454292E0,-2.649490356E-2,-9.803264008E0,4.171824646E-1,9.812172460E0
2.553423292E0,-1.901046753E-2,-9.791588287E0,4.282594299E-1,9.800967744E0
2.563391292E0,-1.631607056E-2,-9.788744202E0,4.426295471E-1,9.798760135E0
2.573360292E0,-1.541793823E-2,-9.799222412E0,4.243675232E-1,9.808419108E0
2.583328292E0,-2.874023438E-2,-9.790989532E0,4.239184570E-1,9.800204533E0
2.593297292E0,-3.832031250E-2,-9.792486420E0,4.162843323E-1,9.801405581E0
2.603266292E0,-3.562591553E-2,-9.796827393E0,4.351451111E-1,9.806551251E0
2.613236292E0,-2.649490356E-2,-9.784103851E0,4.240681458E-1,9.793325479E0
2.623206292E0,-3.412902832E-2,-9.788444824E0,4.065545654E-1,9.796943579E0
2.633176292E0,-2.769241333E-2,-9.801168365E0,4.096980286E-1,9.809766596E0
2.643145292E0,-2.305206299E-2,-9.777816925E0,4.207749939E-1,9.786893624E0
2.653115292E0,-3.697311401E-2,-9.799821167E0,4.363426208E-1,9.809600236E0
2.663084292E0,-2.544708252E-2,-9.803862762E0,4.291575623E-1,9.813284304E0
2.673052292E0,-1.586700439E-2,-9.794731750E0,4.108955383E-1,9.803359474E0
2.683022292E0,-2.694396973E-2,-9.784403229E0,4.119433594E-1,9.793108283E0
2.692990292E0,-1.886077881E-2,-9.783954163E0,4.263134766E-1,9.793255739E0
2.702959292E0,-2.215393066E-2,-9.781858521E0,4.249662781E-1,9.791110420E0
2.712928292E0,-4.191284180E-3,-9.809700623E0,4.240681458E-1,9.818863359E0
2.722897292E0,-2.844085693E-2,-9.795629883E0,4.333488464E-1,9.805251904E0
2.732865292E0,-3.637435913E-2,-9.772128754E0,4.311035156E-1,9.781700962E0
2.742834292E0,-3.113525391E-2,-9.789043579E0,4.203259277E-1,9.798112955E0
2.752803292E0,-2.290237427E-2,-9.771080933E0,4.195774841E-1,9.780112084E0
2.762772292E0,-2.829116821E-2,-9.798923035E0,4.340972900E-1,9.808574488E0
2.772740292E0,-3.622467041E-2,-9.800569611E0,4.236190796E-1,9.809787462E0
2.782709292E0,-2.230361938E-2,-9.791887665E0,4.294569397E-1,9.801326173E0
2.792679292E0,-3.757186890E-2,-9.791737976E0,4.234693909E-1,9.800962737E0
2.802648292E0,-3.038681030E-2,-9.790091400E0,4.331991577E-1,9.799718082E0
2.812617292E0,-3.038681030E-2,-9.791288910E0,4.339476013E-1,9.800947525E0
2.822587292E0,-2.020797729E-2,-9.786349182E0,4.264631653E-1,9.795657686E0
2.832556292E0,-2.604583740E-2,-9.781259766E0,4.299060059E-1,9.790737468E0
2.842524292E0,-2.275268555E-2,-9.784403229E0,4.200265503E-1,9.793440995E0
2.852493292E0,-2.799179077E-2,-9.781559143E0,4.294569397E-1,9.791022218E0
2.862463292E0,-2.424957275E-2,-9.794881439E0,4.203259277E-1,9.803925965E0
2.872432292E0,-3.188369751E-2,-9.783205719E0,4.320016479E-1,9.792791029E0
2.882401292E0,-2.110610962E-2,-9.790540466E0,4.361929321E-1,9.800275117E0
2.892370292E0,-2.948867798E-2,-9.798324280E0,4.215234375E-1,9.807431380E0
2.902340292E0,-2.005828857E-2,-9.794432373E0,4.152365112E-1,9.803250951E0
2.912309292E0,-2.844085693E-2,-9.789342957E0,4.361929321E-1,9.799097340E0
2.922279292E0,-2.454895020E-2,-9.779014435E0,4.375401306E-1,9.788828701E0
2.932248292E0,-2.874023438E-2,-9.777068481E0,4.206253052E-1,9.786154492E0
2.942218292E0,-1.721420288E-2,-9.788744202E0,4.119433594E-1,9.797423473E0
2.952188292E0,-2.514770508E-2,-9.779313812E0,4.266128540E-1,9.788646974E0
2.962157292E0,-2.709365845E-2,-9.783205719E0,4.302053833E-1,9.792697528E0
2.972127292E0,-2.933898926E-2,-9.790390778E0,4.161346436E-1,9.799274483E0
2.982096292E0,-3.891906738E-2,-9.795031128E0,4.284091187E-1,9.804472646E0
2.992066292E0,-2.574645996E-2,-9.780361633E0,4.086502075E-1,9.788929030E0
3.002035292E0,-2.484832764E-2,-9.803713074E0,4.267625427E-1,9.813028775E0
3.012004292E0,-2.020797729E-2,-9.798623657E0,4.167333984E-1,9.807502264E0
3.021974292E0,-2.305206299E-2,-9.790241089E0,4.068539429E-1,9.798718391E0
3.031945292E0,-2.754272461E-2,-9.797725525E0,4.141886902E-1,9.806514994E0
3.041915292E0,-2.170486450E-2,-9.798773346E0,4.147874451E-1,9.807572524E0
3.051884292E0,-1.960922241E-2,-9.800569611E0,4.276606750E-1,9.809915538E0
3.061854292E0,-3.053649902E-2,-9.793234863E0,4.364923096E-1,9.803005004E0
3.071824292E0,-2.664459229E-2,-9.790540466E0,4.131408691E-1,9.799289665E0
3.081794292E0,-2.095642090E-2,-9.784852295E0,4.218228149E-1,9.793962839E0
3.091764292E0,-2.080673218E-2,-9.796378326E0,4.267625427E-1,9.805691587E0
3.101733292E0,-2.290237427E-2,-9.780062256E0,4.221221924E-1,9.789194522E0
3.111702292E0,-3.502716064E-2,-9.773775330E0,4.300556946E-1,9.783294895E0
3.121671292E0,-2.409988403E-2,-9.779912567E0,4.215234375E-1,9.789022047E0
3.131640292E0,-2.769241333E-2,-9.770631866E0,4.138893127E-1,9.779433435E0
3.141613208E0,-2.679428101E-2,-9.791588287E0,4.328997803E-1,9.801189792E0
3.151582208E0,-1.781295776E-2,-9.780361633E0,4.183799744E-1,9.789322386E0
3.161550208E0,-1.601669312E-2,-9.781858521E0,4.334985352E-1,9.791472495E0
3.171520208E0,-3.143463135E-2,-9.787397003E0,4.430786133E-1,9.797471454E0
3.181489208E0,-2.170486450E-2,-9.790241089E0,4.294569397E-1,9.799679839E0
3.191457208E0,-2.230361938E-2,-9.807006226E0,4.254153442E-1,9.816254213E0
3.201426208E0,-2.933898926E-2,-9.788444824E0,4.192781067E-1,9.797464314E0
3.211395208E0,-3.053649902E-2,-9.801018677E0,4.188290405E-1,9.810011078E0
3.221364208E0,-3.532653809E-2,-9.799372101E0,4.236190796E-1,9.808587801E0
3.231333208E0,-2.050735474E-2,-9.808353424E0,4.116439819E-1,9.817009128E0
3.241303208E0,-2.664459229E-2,-9.794432373E0,4.155358887E-1,9.803279325E0
3.251272208E0,-3.757186890E-2,-9.782008209E0,4.242178345E-1,9.791274535E0
3.261241208E0,-2.888992310E-2,-9.796827393E0,4.110452271E-1,9.805489267E0
3.271209208E0,-1.586700439E-2,-9.780511322E0,4.207749939E-1,9.789571241E0
3.281178208E0,-3.517684937E-2,-9.784852295E0,4.108955383E-1,9.793539043E0
3.291147208E0,-2.005828857E-2,-9.788295135E0,4.096980286E-1,9.796886060E0
3.301115208E0,-1.092727661E-2,-9.781708832E0,4.273612976E-1,9.791046152E0
3.311084208E0,-2.155517578E-2,-9.798773346E0,4.276606750E-1,9.808125069E0
3.321053208E0,-1.257385254E-2,-9.792785797E0,4.456233215E-1,9.802927722E0
3.331022208E0,-2.215393066E-2,-9.802665253E0,4.375401306E-1,9.812450164E0
3.340990208E0,-2.634521484E-2,-9.776170349E0,4.326004028E-1,9.785772523E0
3.350960208E0,-3.098556519E-2,-9.789342957E0,4.132905579E-1,9.798112303E0
3.360928208E0,-4.026626587E-2,-9.782906342E0,4.146377563E-1,9.791772175E0
3.370897208E0,-4.161346436E-2,-9.787397003E0,4.104464722E-1,9.796087897E0
3.380865208E0,-2.993774414E-2,-9.799222412E0,4.237687683E-1,9.808426791E0
3.390833208E0,-1.661544800E-2,-9.799372101E0,4.291575623E-1,9.808779020E0
3.400802208E0,-1.212478638E-2,-9.798174591E0,4.258644104E-1,9.807432530E0
3.410771208E0,-2.784210205E-2,-9.771380310E0,4.162843323E-1,9.780283278E0
3.420740208E0,-2.948867798E-2,-9.778565369E0,4.153862000E-1,9.787428464E0
3.430709208E0,-3.757186890E-2,-9.799521790E0,4.125421143E-1,9.808273546E0
3.440678208E0,-3.083587646E-2,-9.802964630E0,4.064048767E-1,9.811433703E0
3.450648208E0,-3.278182983E-2,-9.787846069E0,4.221221924E-1,9.796999156E0
3.460617208E0,-3.218307495E-2,-9.789492645E0,4.107458496E-1,9.798158712E0
3.470586208E0,-1.077758789E-2,-9.795031128E0,4.107458496E-1,9.803645399E0
3.480554208E0,-3.832031250E-2,-9.803862762E0,4.101470947E-1,9.812513141E0
3.490524208E0,-3.502716064E-2,-9.764494629E0,4.257147217E-1,9.773833193E0
3.500493208E0,-3.083587646E-2,-9.776170349E0,4.167333984E-1,9.785097050E0
3.510461208E0,-4.026626587E-2,-9.791887665E0,4.299060059E-1,9.801403195E0
3.520431208E0,-4.056564331E-2,-9.796228638E0,4.293072510E-1,9.805714957E0
3.530400208E0,-2.365081787E-2,-9.792935486E0,4.340972900E-1,9.802580540E0
3.540369208E0,-1.347198486E-2,-9.792935486E0,4.327500916E-1,9.802501699E0
3.550338208E0,-1.451980591E-2,-9.788594513E0,4.327500916E-1,9.798166461E0
3.560306208E0,-2.484832764E-2,-9.785151672E0,4.424798584E-1,9.795182444E0
3.570275208E0,-3.248245239E-2,-9.789642334E0,4.276606750E-1,9.799032901E0
3.580243208E0,-3.218307495E-2,-9.800419922E0,4.215234375E-1,9.809533547E0
3.590212208E0,-2.933898926E-2,-9.785900116E0,4.123924255E-1,9.794629619E0
3.600182208E0,-3.951782227E-2,-9.801467743E0,4.222718811E-1,9.810639384E0
3.610150208E0,-3.921844482E-2,-9.789193268E0,4.273612976E-1,9.798595848E0
3.620119208E0,-1.886077881E-2,-9.779912567E0,4.240681458E-1,9.789120458E0
3.630088208E0,-1.257385254E-2,-9.782756653E0,4.243675232E-1,9.791964748E0
3.640057208E0,-2.275268555E-2,-9.791438599E0,4.273612976E-1,9.800786968E0
3.650025208E0,-2.125579834E-2,-9.783355408E0,4.192781067E-1,9.792358703E0
3.659994208E0,-3.502716064E-2,-9.794432373E0,4.239184570E-1,9.803664584E0
3.669963208E0,-3.128494263E-2,-9.792636108E0,4.294569397E-1,9.802098447E0
3.679932208E0,-2.245330811E-2,-9.776769104E0,4.288581848E-1,9.786196279E0
3.689901208E0,-2.335144043E-2,-9.793534241E0,4.155358887E-1,9.802373605E0
3.699871208E0,-2.185455322E-2,-9.790390778E0,4.231700134E-1,9.799556217E0
3.709840208E0,-1.811233521E-2,-9.784852295E0,4.077520752E-1,9.793361233E0
3.719809208E0,-3.218307495E-2,-9.801318054E0,4.234693909E-1,9.810514649E0
3.729777208E0,-3.921844482E-2,-9.785001984E0,4.278103638E-1,9.794428192E0
3.739747208E0,-6.002517700E-2,-9.800719299E0,4.216731262E-1,9.809969930E0
3.749716208E0,-4.745132446E-2,-9.780211945E0,4.275109863E-1,9.789666131E0
3.759685208E0,-3.128494263E-2,-9.769434357E0,4.179309082E-1,9.778419742E0
3.769654208E0,-1.496887207E-2,-9.781858521E0,4.384382629E-1,9.791690778E0
3.779624208E0,-1.511856079E-2,-9.789941711E0,4.245172119E-1,9.799153134E0
3.789594208E0,-6.586303711E-3,-9.809101868E0,4.321513367E-1,9.818618926E0
3.799564208E0,-1.676513672E-2,-9.803713074E0,4.575984192E-1,9.814401022E0
3.809533208E0,-1.945953369E-2,-9.810449066E0,4.369413757E-1,9.820193853E0
3.819501208E0,-1.676513672E-2,-9.797725525E0,4.346960449E-1,9.807378201E0
3.829470208E0,-2.829116821E-2,-9.799372101E0,4.215234375E-1,9.808474701E0
3.839439208E0,-2.140548706E-2,-9.775721283E0,4.044589233E-1,9.784108126E0
3.849407208E0,-3.936813354E-2,-9.804910583E0,4.114942932E-1,9.813620583E0
3.859377208E0,-3.397933960E-2,-9.781259766E0,4.132905579E-1,9.790046286E0
3.869346208E0,-1.841171265E-2,-9.789642334E0,4.237687683E-1,9.798827276E0
3.879315208E0,-2.529739380E-2,-9.793234863E0,4.233197021E-1,9.802412388E0
3.889284208E0,-2.140548706E-2,-9.800719299E0,4.405339050E-1,9.810638465E0
3.899253208E0,-3.068618774E-2,-9.789792023E0,4.317022705E-1,9.799353874E0
3.909223208E0,-1.541793823E-2,-9.794881439E0,4.155358887E-1,9.803703902E0
3.919192208E0,-1.257385254E-2,-9.806557159E0,4.188290405E-1,9.815505040E0
3.929161208E0,-2.200424194E-2,-9.795180817E0,4.186793518E-1,9.804149316E0
3.939130208E0,-1.511856079E-2,-9.795779572E0,4.390370178E-1,9.805624890E0
3.949100208E0,-2.963836670E-2,-9.782307587E0,4.257147217E-1,9.791611368E0
3.959069208E0,-3.547622681E-2,-9.799072723E0,4.285588074E-1,9.808503834E0
3.969038208E0,-4.146377563E-2,-9.796528015E0,4.080514526E-1,9.805110218E0
3.979007208E0,-2.215393066E-2,-9.790989532E0,4.101470947E-1,9.799601393E0
3.988975208E0,-3.532653809E-2,-9.788893890E0,4.077520752E-1,9.797446265E0
3.998944208E0,-1.137634277E-2,-9.782307587E0,4.390370178E-1,9.792161388E0
4.008912208E0,-3.517684937E-2,-9.779613190E0,4.400848389E-1,9.789573342E0
4.018881208E0,-2.065704346E-2,-9.786049805E0,4.224215698E-1,9.795184402E0
4.028850208E0,-3.323089600E-2,-9.802515564E0,4.245172119E-1,9.811759808E0
4.038818208E0,-3.023712158E-2,-9.777667236E0,4.197271729E-1,9.786718641E0
4.048787208E0,-3.637435913E-2,-9.786199493E0,4.173321533E-1,9.795161548E0
4.058755208E0,-3.472778320E-2,-9.793534241E0,4.343966675E-1,9.803224949E0
4.068724208E0,-2.903961182E-2,-9.795180817E0,4.294569397E-1,9.804633792E0
4.078693208E0,-3.053649902E-2,-9.788444824E0,4.333488464E-1,9.798080209E0
4.088661208E0,-1.451980591E-2,-9.786947937E0,4.206253052E-1,9.795993385E0
4.098630208E0,-2.619552612E-2,-9.775421906E0,4.272116089E-1,9.784787652E0
4.108599208E0,-3.487747192E-2,-9.801916809E0,4.297563171E-1,9.811395419E0
4.118567208E0,-1.616638184E-2,-9.791737976E0,4.303550720E-1,9.801203979E0
4.128536208E0,-2.155517578E-2,-9.787696381E0,4.082011414E-1,9.796228521E0
4.138500417E0,-3.113525391E-2,-9.802066498E0,4.174818420E-1,9.811002401E0
4.148469417E0,-1.766326904E-2,-9.778864746E0,4.281097412E-1,9.788247323E0
4.158438417E0,-1.437011719E-2,-9.785451050E0,4.254153442E-1,9.794704537E0
4.168406417E0,-2.888992310E-2,-9.806706848E0,4.155358887E-1,9.815549088E0
4.178375417E0,-3.652404785E-2,-9.794432373E0,4.188290405E-1,9.803451294E0
4.188343417E0,-3.098556519E-2,-9.783355408E0,4.067042542E-1,9.791854344E0
4.198312417E0,-1.886077881E-2,-9.790540466E0,4.192781067E-1,9.799532258E0
4.208281417E0,-2.125579834E-2,-9.779014435E0,4.129911804E-1,9.787754433E0
4.218250417E0,-2.439926147E-2,-9.807754669E0,4.153862000E-1,9.816577442E0
4.228219417E0,-4.580474854E-2,-9.802365875E0,4.158352661E-1,9.811289100E0
4.238187417E0,-2.694396973E-2,-9.791438599E0,4.360432434E-1,9.801180006E0
4.248155417E0,-1.811233521E-2,-9.796677704E0,4.317022705E-1,9.806201555E0
4.258124417E0,-7.933502197E-3,-9.802515564E0,4.252656555E-1,9.811739153E0
4.268093417E0,-1.526824951E-2,-9.805359650E0,4.209246826E-1,9.814402099E0
4.278061417E0,-1.781295776E-2,-9.781708832E0,4.288581848E-1,9.791121709E0
4.288030417E0,-1.616638184E-2,-9.785451050E0,4.339476013E-1,9.795081629E0
4.297999417E0,-4.715194702E-2,-9.789193268E0,4.284091187E-1,9.798676570E0
4.307968417E0,-4.790039063E-2,-9.773026886E0,4.210743713E-1,9.782211028E0
4.317937417E0,-3.487747192E-2,-9.786498871E0,4.149371338E-1,9.795353460E0
4.327905417E0,-3.098556519E-2,-9.781858521E0,4.137396240E-1,9.790653538E0
4.337874417E0,-1.437011719E-2,-9.773475952E0,4.123924255E-1,9.782183100E0
4.347843417E0,-1.422042847E-2,-9.812844086E0,4.120930481E-1,9.821503548E0
4.357811417E0,-3.787124634E-2,-9.806557159E0,4.249662781E-1,9.815833836E0
4.367780417E0,-2.859054565E-2,-9.797126770E0,4.326004028E-1,9.806714714E0
4.377749417E0,-3.577560425E-2,-9.781259766E0,4.281097412E-1,9.790689478E0
4.387717417E0,-3.637435913E-2,-9.778415680E0,4.116439819E-1,9.787143969E0
4.397686417E0,-1.167572021E-2,-9.787097626E0,4.405339050E-1,9.797014156E0
4.407654417E0,-2.724334717E-2,-9.783654785E0,4.167333984E-1,9.792564010E0
4.417623417E0,-2.380050659E-2,-9.790540466E0,4.252656555E-1,9.799801017E0
4.427591417E0,-2.784210205E-2,-9.782457275E0,3.975732422E-1,9.790572507E0
4.437559417E0,-2.709365845E-2,-9.788594513E0,4.287084961E-1,9.798015492E0
4.447528417E0,-2.769241333E-2,-9.795031128E0,4.171824646E-1,9.803950371E0
4.457496417E0,-2.649490356E-2,-9.789492645E0,4.219725037E-1,9.798618730E0
4.467465417E0,-3.367996216E-2,-9.794132996E0,4.254153442E-1,9.803425610E0
4.477434417E0,-3.802093506E-2,-9.786349182E0,4.294569397E-1,9.795841422E0
4.487402417E0,-3.502716064E-2,-9.794731750E0,4.263134766E-1,9.804067531E0
4.497371417E0,-2.619552612E-2,-9.781858521E0,4.255650330E-1,9.791146405E0
4.507340417E0,-3.068618774E-2,-9.800569611E0,4.125421143E-1,9.809296475E0
4.517309417E0,-1.586700439E-2,-9.790540466E0,4.442761230E-1,9.800628330E0
4.527277417E0,-1.796264648E-2,-9.792785797E0,4.327500916E-1,9.802359357E0
4.537245417E0,-3.143463135E-2,-9.788594513E0,4.082011414E-1,9.797152589E0
4.547213417E0,-2.469863892E-2,-9.793833618E0,4.288581848E-1,9.803249783E0
4.557182417E0,-3.158432007E-2,-9.786349182E0,4.390370178E-1,9.796243228E0
4.567149417E0,-3.861968994E-2,-9.791288910E0,4.288581848E-1,9.800752488E0
4.577117417E0,-3.607498169E-2,-9.793983307E0,4.326004028E-1,9.803599009E0
4.587085417E0,-3.427871704E-2,-9.781409454E0,4.267625427E-1,9.790774852E0
4.597054417E0,-3.113525391E-2,-9.793983307E0,4.312532043E-1,9.803522721E0
4.607023417E0,-2.185455322E-2,-9.792636108E0,4.243675232E-1,9.801851221E0
4.616992417E0,-3.427871704E-2,-9.790091400E0,4.149371338E-1,9.798940630E0
4.626960417E0,-3.742218018E-2,-9.775272217E0,4.150868225E-1,9.784152718E0
4.636928417E0,-3.966751099E-2,-9.804760895E0,4.189787292E-1,9.813788916E0
4.646895417E0,-2.454895020E-2,-9.783205719E0,4.096980286E-1,9.791811337E0
4.656863417E0,-2.454895020E-2,-9.808952179E0,4.123924255E-1,9.817648039E0
4.666832417E0,-1.107696533E-2,-9.791737976E0,4.285588074E-1,9.801118199E0
4.676801417E0,-2.574645996E-2,-9.791737976E0,4.198768616E-1,9.800769972E0
4.686769417E0,-2.035766602E-2,-9.794582062E0,4.240681458E-1,9.803779169E0
4.696737417E0,-4.071533203E-2,-9.792935486E0,4.324507141E-1,9.802563786E0
4.706706417E0,-2.350112915E-2,-9.795779572E0,4.284091187E-1,9.805171293E0
4.716674417E0,-2.844085693E-2,-9.782008209E0,4.296066284E-1,9.791478711E0
4.726642417E0,-2.439926147E-2,-9.797426147E0,4.257147217E-1,9.806701151E0
4.736610417E0,-1.242416382E-2,-9.799072723E0,4.197271729E-1,9.808065635E0
4.746578417E0,-3.308120728E-2,-9.811646576E0,4.170327759E-1,9.820561045E0
4.756545417E0,-2.814147949E-2,-9.786798248E0,4.326004028E-1,9.796395000E0
4.766514417E0,-3.218307495E-2,-9.783505096E0,4.334985352E-1,9.793157239E0
4.776482417E0,-1.676513672E-2,-9.789492645E0,4.156855774E-1,9.798328522E0
4.786450417E0,-3.682342529E-2,-9.798923035E0,4.379891968E-1,9.808775823E0
4.796419417E0,-1.751358032E-2,-9.795480194E0,4.249662781E-1,9.804709853E0
4.806387417E0,-1.886077881E-2,-9.785750427E0,4.221221924E-1,9.794868774E0
4.816355417E0,-2.739303589E-2,-9.793384552E0,4.182302856E-1,9.802349103E0
4.826323417E0,-3.876937866E-2,-9.801767120E0,4.252656555E-1,9.811064806E0
4.836292417E0,-2.784210205E-2,-9.787995758E0,4.308041382E-1,9.797511334E0
4.846261417E0,-3.502716064E-2,-9.799072723E0,4.116439819E-1,9.807777725E0
4.856230417E0,-1.541793823E-2,-9.785451050E0,4.192781067E-1,9.794441490E0
4.866198417E0,-1.990859985E-2,-9.788295135E0,4.340972900E-1,9.797936439E0
4.876167417E0,-3.547622681E-2,-9.785900116E0,4.224215698E-1,9.795077316E0
4.886136417E0,-2.978805542E-2,-9.802216187E0,4.218228149E-1,9.811333446E0
4.896105417E0,-2.754272461E-2,-9.782157898E0,4.165837097E-1,9.791062952E0
4.906074417E0,-3.667373657E-2,-9.780810699E0,4.119433594E-1,9.789550563E0
4.916044417E0,-3.487747192E-2,-9.786199493E0,4.156855774E-1,9.795086088E0
4.926013417E0,-2.799179077E-2,-9.788444824E0,4.305047607E-1,9.797947232E0
4.935984417E0,-2.874023438E-2,-9.793085175E0,4.396357727E-1,9.802990505E0
4.945957417E0,-3.128494263E-2,-9.792336731E0,4.263134766E-1,9.801662134E0
4.955929417E0,-1.751358032E-2,-9.775721283E0,4.258644104E-1,9.785008627E0
4.965902417E0,-1.272354126E-2,-9.797126770E0,4.147874451E-1,9.805911659E0
4.975876417E0,-3.487747192E-2,-9.788594513E0,4.068539429E-1,9.797108201E0
4.985849417E0,-2.365081787E-2,-9.785151672E0,4.122427368E-1,9.793860152E0
4.995823417E0,-2.739303589E-2,-9.793683929E0,4.258644104E-1,9.802976884E0
5.005797417E0,-1.945953369E-2,-9.794881439E0,4.150868225E-1,9.803692067E0
5.015770417E0,-1.407073975E-2,-9.788744202E0,4.421804810E-1,9.798736378E0
5.025744417E0,-1.526824951E-2,-9.782307587E0,4.047583008E-1,9.790689665E0
5.035717417E0,-3.098556519E-2,-9.791588287E0,4.161346436E-1,9.800475975E0
5.045691417E0,-1.287322998E-2,-9.778565369E0,4.074526978E-1,9.787059011E0
5.055665417E0,-3.517684937E-2,-9.792935486E0,4.314028931E-1,9.802496177E0
5.065638417E0,-3.652404785E-2,-9.787846069E0,4.376898193E-1,9.797695497E0
5.075612417E0,-4.370910645E-2,-9.777966614E0,4.156855774E-1,9.786896142E0
5.085586417E0,-3.921844482E-2,-9.785750427E0,4.146377563E-1,9.794609435E0
5.095560417E0,-3.577560425E-2,-9.783804474E0,4.324507141E-1,9.793422461E0
5.105534417E0,-1.960922241E-2,-9.780511322E0,4.267625427E-1,9.789837205E0
5.115508417E0,-3.053649902E-2,-9.799970856E0,4.143383789E-1,9.808773498E0
5.125481417E0,-2.589614868E-2,-9.785301361E0,4.183799744E-1,9.794275631E0
5.135455292E0,-3.921844482E-2,-9.798473969E0,4.337979126E-1,9.808150225E0
5.145428292E0,-4.355941772E-2,-9.769883423E0,4.376898193E-1,9.779779747E0
5.155401292E0,-2.739303589E-2,-9.793384552E0,4.239184570E-1,9.802593444E0
5.165375292E0,-2.903961182E-2,-9.806706848E0,4.158352661E-1,9.815562209E0
5.175349292E0,-4.236190796E-2,-9.791438599E0,4.173321533E-1,9.800419914E0
5.185322292E0,-6.735992432E-2,-9.804910583E0,4.117936707E-1,9.813785352E0
5.195296292E0,-1.451980591E-2,-9.775721283E0,3.989204407E-1,9.783868097E0
5.205269292E0,4.969665527E-2,-9.775272217E0,4.182302856E-1,9.784341227E0
5.215242292E0,-1.496887207E-2,-9.801318054E0,4.141886902E-1,9.810077061E0
5.225216292E0,-7.723937988E-2,-9.801916809E0,4.249662781E-1,9.811428815E0
5.235197292E0,-6.721023560E-2,-9.790241089E0,4.441264343E-1,9.800540091E0
5.245186292E0,-1.676513672E-2,-9.772727509E0,4.296066284E-1,9.782180017E0
5.255173292E0,7.783813477E-3,-9.791737976E0,4.327500916E-1,9.801299190E0
5.265159292E0,-4.116439819E-2,-9.776170349E0,4.174818420E-1,9.785166953E0
5.275145292E0,-3.323089600E-2,-9.775421906E0,4.206253052E-1,9.784523666E0
5.285132292E0,7.035369873E-3,-9.784103851E0,4.363426208E-1,9.793831352E0
5.295118292E0,-2.245330811E-3,-9.788893890E0,4.294569397E-1,9.798310155E0
5.305104292E0,-4.236190796E-2,-9.779014435E0,4.340972900E-1,9.788736298E0
5.315090292E0,-7.050338745E-2,-9.792187042E0,4.116439819E-1,9.801089152E0
5.325076292E0,-4.071533203E-2,-9.786199493E0,4.137396240E-1,9.795026225E0
5.335062292E0,-2.275268555E-2,-9.776619415E0,3.966751099E-1,9.784689879E0
5.345049292E0,-1.945953369E-2,-9.780511322E0,4.105961609E-1,9.789145499E0
5.355035292E0,-1.886077881E-2,-9.790091400E0,4.257147217E-1,9.799361121E0
5.365021292E0,-4.490661621E-4,-9.790989532E0,4.472698975E-1,9.801200263E0
5.375007292E0,-2.589614868E-2,-9.771230621E0,4.531077576E-1,9.781764928E0
5.384993292E0,-4.655319214E-2,-9.789642334E0,4.355941772E-1,9.799439092E0
5.394979292E0,-4.340972900E-2,-9.792935486E0,4.209246826E-1,9.802073629E0
5.404966292E0,-1.242416382E-2,-9.795929260E0,4.011657715E-1,9.804148021E0
5.414952292E0,-2.844085693E-3,-9.781409454E0,4.010160828E-1,9.789626801E0
5.424938292E0,-3.382965088E-2,-9.773176575E0,4.192781067E-1,9.782224641E0
5.434924292E0,-4.101470947E-2,-9.797875214E0,4.147874451E-1,9.806736946E0
5.444910292E0,-9.580078125E-3,-9.785151672E0,4.251159668E-1,9.794386587E0
5.454896292E0,-4.490661621E-3,-9.793833618E0,4.279600525E-1,9.803180449E0
5.464883292E0,-2.694396973E-2,-9.795180817E0,4.326004028E-1,9.804766000E0
5.474869292E0,-3.083587646E-2,-9.790989532E0,4.209246826E-1,9.800081860E0
5.484855292E0,-1.526824951E-2,-9.791438599E0,3.987707520E-1,9.799567392E0
5.494841292E0,-2.754272461E-2,-9.778864746E0,4.222718811E-1,9.788016544E0
5.504827292E0,-2.694396973E-2,-9.802964630E0,4.149371338E-1,9.811779367E0
5.514813292E0,-1.407073975E-2,-9.793983307E0,4.189787292E-1,9.802951095E0
5.524800292E0,-2.799179077E-2,-9.793384552E0,4.308041382E-1,9.802895324E0
5.534786292E0,-3.727249146E-2,-9.782008209E0,4.149371338E-1,9.790875684E0
5.544772292E0,-3.487747192E-2,-9.805958405E0,4.197271729E-1,9.814999112E0
5.554758292E0,-1.377136230E-2,-9.786349182E0,4.219725037E-1,9.795452045E0
5.564744292E0,-1.691482544E-2,-9.797725525E0,4.337979126E-1,9.807338691E0
5.574730292E0,-3.502716064E-2,-9.796977081E0,4.291575623E-1,9.806434778E0
5.584717292E0,-3.367996216E-2,-9.794582062E0,4.236190796E-1,9.803796470E0
5.594703292E0,-2.694396973E-2,-9.800270233E0,4.275109863E-1,9.809627325E0
5.604689292E0,-2.245330811E-2,-9.786199493E0,4.261637878E-1,9.795500000E0
5.614675292E0,-1.975891113E-2,-9.779463501E0,4.276606750E-1,9.788829881E0
5.624661292E0,-3.861968994E-2,-9.800120544E0,4.318519592E-1,9.809706942E0
5.634648292E0,-3.532653809E-2,-9.783056030E0,4.450245667E-1,9.793236448E0
5.644634292E0,-2.260299683E-2,-9.798024902E0,4.323010254E-1,9.807583141E0
5.654620292E0,-1.571731567E-2,-9.786349182E0,4.053570557E-1,9.794753274E0
5.664606292E0,-1.990859985E-2,-9.790839844E0,4.207749939E-1,9.799897591E0
5.674592292E0,-3.128494263E-2,-9.780062256E0,4.146377563E-1,9.788897841E0
5.684578292E0,-3.188369751E-2,-9.786798248E0,4.150868225E-1,9.795648707E0
5.694565292E0,-4.026626587E-2,-9.786199493E0,4.195774841E-1,9.795272695E0
5.704551292E0,-2.948867798E-2,-9.783056030E0,4.182302856E-1,9.792036124E0
5.714537292E0,-2.694396973E-2,-9.807155914E0,4.019142151E-1,9.815425011E0
5.724523292E0,-1.766326904E-2,-9.794132996E0,4.315525818E-1,9.803651909E0
5.734509292E0,-1.841171265E-2,-9.775421906E0,4.534071350E-1,9.785948623E0
5.744495292E0,-2.694396973E-2,-9.792935486E0,4.218228149E-1,9.802053147E0
5.754482292E0,-2.918930054E-2,-9.793384552E0,4.071533203E-1,9.801887921E0
5.764468292E0,-1.227447510E-2,-9.794432373E0,4.131408691E-1,9.803149573E0
5.774454292E0,-3.083587646E-2,-9.811796265E0,4.126918030E-1,9.820519911E0
5.784440292E0,-3.188369751E-2,-9.799072723E0,4.287084961E-1,9.808498039E0
5.794426292E0,-1.362167358E-2,-9.788893890E0,4.260140991E-1,9.798169072E0
5.804412292E0,-1.302291870E-2,-9.786498871E0,4.358935547E-1,9.796210131E0
5.814399292E0,-1.466949463E-2,-9.775122528E0,4.185296631E-1,9.784089263E0
5.824385292E0,3.742218018E-3,-9.784702606E0,4.225712585E-1,9.793823848E0
5.834371292E0,-3.203338623E-2,-9.790091400E0,4.228706360E-1,9.799272184E0
5.844357292E0,-3.338058472E-2,-9.789492645E0,4.101470947E-1,9.798137637E0
5.854343292E0,-2.080673218E-2,-9.771230621E0,4.201762390E-1,9.780282657E0
5.864329292E0,-2.469863892E-2,-9.778116302E0,4.233197021E-1,9.787306474E0
5.874316292E0,-2.888992310E-2,-9.797725525E0,4.225712585E-1,9.806876493E0
5.884302292E0,-1.541793823E-2,-9.793384552E0,4.430786133E-1,9.803414576E0
5.894288292E0,-2.784210205E-2,-9.767338715E0,4.337979126E-1,9.777006770E0
5.904274292E0,-3.053649902E-2,-9.785301361E0,4.082011414E-1,9.793859473E0
5.914260292E0,-3.098556519E-2,-9.802365875E0,4.158352661E-1,9.811231107E0
5.924246292E0,-3.487747192E-2,-9.767638092E0,4.165837097E-1,9.776579787E0
5.934233292E0,-4.131408691E-2,-9.777068481E0,4.278103638E-1,9.786510954E0
5.944219292E0,-4.041595459E-2,-9.795480194E0,4.120930481E-1,9.804227984E0
5.954205292E0,-2.305206299E-2,-9.798024902E0,4.367916870E-1,9.807783152E0
5.964191292E0,-5.987548828E-3,-9.799970856E0,4.323010254E-1,9.809502984E0
5.974177292E0,-2.305206299E-2,-9.784552917E0,4.242178345E-1,9.793771897E0
5.984164292E0,-3.143463135E-2,-9.787546692E0,4.216731262E-1,9.796676304E0
5.994150292E0,-2.903961182E-2,-9.796528015E0,4.164340210E-1,9.805417979E0
6.004136292E0,-1.676513672E-2,-9.784253540E0,4.150868225E-1,9.793068747E0
6.014122292E0,-1.990859985E-2,-9.769584045E0,4.195774841E-1,9.778610026E0
6.024108292E0,-2.230361938E-2,-9.801767120E0,4.210743713E-1,9.810832776E0
6.034094292E0,-2.799179077E-2,-9.782606964E0,4.182302856E-1,9.791583076E0
6.044081292E0,-1.886077881E-2,-9.797875214E0,4.251159668E-1,9.807111604E0
6.054067292E0,-1.586700439E-2,-9.790989532E0,4.243675232E-1,9.800194671E0
6.064053292E0,-2.350112915E-2,-9.779313812E0,4.303550720E-1,9.788806691E0
6.074039292E0,-2.888992310E-2,-9.789642334E0,4.381388855E-1,9.799484545E0
6.084025292E0,-2.380050659E-2,-9.799372101E0,4.278103638E-1,9.808734972E0
6.094011292E0,-2.589614868E-2,-9.796378326E0,4.194277954E-1,9.805387223E0
6.103998292E0,-4.071533203E-2,-9.783654785E0,4.297563171E-1,9.793173601E0
6.113984292E0,-4.191284180E-2,-9.784103851E0,4.161346436E-1,9.793039002E0
6.123970292E0,-2.664459229E-2,-9.796078949E0,4.239184570E-1,9.805283248E0
6.133956292E0,-3.218307495E-2,-9.794731750E0,4.059558105E-1,9.803193660E0
6.143941917E0,-3.008743286E-2,-9.785750427E0,4.186793518E-1,9.794749056E0
6.153928917E0,-1.826202393E-2,-9.786498871E0,4.243675232E-1,9.795712401E0
6.163914917E0,-2.409988403E-2,-9.788594513E0,4.213737488E-1,9.797689482E0
6.173900917E0,-1.945953369E-2,-9.788444824E0,4.218228149E-1,9.797548940E0
6.183886917E0,-2.529739380E-2,-9.792336731E0,4.348457336E-1,9.802019660E0
6.193872917E0,-1.930984497E-2,-9.784852295E0,4.252656555E-1,9.794108340E0
6.203858917E0,2.544708252E-3,-9.779762878E0,4.260140991E-1,9.789037565E0
6.213845917E0,-2.424957275E-2,-9.765243073E0,4.156855774E-1,9.774116574E0
6.223831917E0,-2.110610962E-2,-9.800270233E0,4.159849548E-1,9.809117473E0
6.233817917E0,-3.652404785E-2,-9.783205719E0,4.167333984E-1,9.792145570E0
6.243803917E0,-3.068618774E-2,-9.801018677E0,4.237687683E-1,9.810223683E0
6.253789917E0,-3.382965088E-2,-9.786349182E0,4.053570557E-1,9.794799084E0
6.263775917E0,-5.688171387E-3,-9.783355408E0,4.255650330E-1,9.792608487E0
6.273762917E0,-2.874023438E-2,-9.796677704E0,4.306544495E-1,9.806180872E0
6.283748917E0,-2.275268555E-2,-9.794282684E0,4.290078735E-1,9.803700258E0
6.293734917E0,-1.631607056E-2,-9.796528015E0,4.382885742E-1,9.806341022E0
6.303720917E0,-1.032852173E-2,-9.791588287E0,4.275109863E-1,9.800922075E0
6.313706917E0,-3.308120728E-2,-9.788444824E0,4.197271729E-1,9.797495463E0
6.323692917E0,-3.308120728E-2,-9.781559143E0,4.209246826E-1,9.790667558E0
6.333679917E0,-2.275268555E-2,-9.770482178E0,4.287084961E-1,9.779909542E0
6.343665917E0,-3.442840576E-2,-9.789342957E0,3.962260437E-1,9.797418839E0
6.353651917E0,-2.754272461E-2,-9.795180817E0,4.140390015E-1,9.803966245E0
6.363637917E0,-1.511856079E-2,-9.774823151E0,4.302053833E-1,9.784297260E0
6.373623917E0,-2.020797729E-2,-9.798024902E0,4.275109863E-1,9.807367944E0
6.383610917E0,-3.023712158E-2,-9.802216187E0,4.209246826E-1,9.811296247E0
6.393596917E0,-2.050735474E-2,-9.791288910E0,4.099974060E-1,9.799890660E0
6.403582917E0,-3.951782227E-2,-9.777517548E0,4.242178345E-1,9.786795789E0
6.413568917E0,-4.745132446E-2,-9.786199493E0,4.170327759E-1,9.795196195E0
6.423554917E0,-4.580474854E-2,-9.796977081E0,4.225712585E-1,9.806193169E0
6.433540917E0,-1.287322998E-2,-9.794282684E0,4.352947998E-1,9.803959434E0
6.443527917E0,-1.646575928E-3,-9.800719299E0,4.309538269E-1,9.810189738E0
6.453513917E0,-4.939727783E-3,-9.799671478E0,4.227209473E-1,9.808785780E0
6.463499917E0,-1.212478638E-2,-9.786648560E0,4.248165894E-1,9.795871895E0
6.473485917E0,-6.885681152E-3,-9.796378326E0,4.302053833E-1,9.805822372E0
6.483471917E0,-3.382965088E-2,-9.785900116E0,4.144880676E-1,9.794732558E0
6.493458917E0,-4.221221924E-2,-9.787846069E0,4.065545654E-1,9.796376839E0
6.503444917E0,-3.772155762E-2,-9.802216187E0,4.260140991E-1,9.811541831E0
6.513430917E0,-2.350112915E-2,-9.800719299E0,4.379891968E-1,9.810529324E0
6.523416917E0,-1.856140137E-2,-9.791887665E0,4.185296631E-1,9.800845660E0
6.533402917E0,-2.140548706E-2,-9.805359650E0,4.299060059E-1,9.814802862E0
6.543388917E0,-1.332229614E-2,-9.800270233E0,4.291575623E-1,9.809671266E0
6.553375917E0,-2.664459229E-2,-9.798773346E0,4.215234375E-1,9.807871891E0
6.563361917E0,-2.709365845E-2,-9.793384552E0,4.192781067E-1,9.802393033E0
6.573347917E0,-4.176315308E-2,-9.787995758E0,4.135899353E-1,9.796818961E0
6.583333917E0,-4.760101318E-2,-9.783954163E0,4.061054993E-1,9.792494401E0
6.593319917E0,-2.454895020E-2,-9.789492645E0,4.204756165E-1,9.798549313E0
6.603305917E0,-1.646575928E-2,-9.798923035E0,4.270619202E-1,9.808238662E0
6.613292917E0,-1.272354126E-2,-9.783954163E0,4.230203247E-1,9.793103039E0
6.623278917E0,-1.871109009E-2,-9.796677704E0,4.138893127E-1,9.805434641E0
6.633264917E0,-2.799179077E-2,-9.788594513E0,4.203259277E-1,9.797654820E0
6.643250917E0,-3.502716064E-2,-9.786648560E0,4.149371338E-1,9.795503548E0
6.653236917E0,-3.652404785E-2,-9.789193268E0,4.230203247E-1,9.798397065E0
6.663223917E0,-2.829116821E-2,-9.788295135E0,4.093986511E-1,9.796893860E0
6.673209917E0,-2.559677124E-2,-9.761800232E0,4.080514526E-1,9.770358486E0
6.683195917E0,-1.197509766E-2,-9.820328522E0,4.281097412E-1,9.829662946E0
6.693181917E0,-1.901046753E-2,-9.754764862E0,4.105961609E-1,9.763420923E0
6.703167917E0,-2.080673218E-2,-9.812694397E0,4.290078735E-1,9.822090002E0
6.713153917E0,-2.424957275E-2,-9.783056030E0,4.388873291E-1,9.792925785E0
6.723140917E0,-2.260299683E-2,-9.791288910E0,4.146377563E-1,9.800090504E0
6.733126917E0,-3.023712158E-2,-9.789792023E0,4.291575623E-1,9.799240702E0
6.743112917E0,-2.065704346E-2,-9.773775330E0,4.176315308E-1,9.782715727E0
6.753098917E0,-3.308120728E-2,-9.792187042E0,4.201762390E-1,9.801253466E0
6.763084917E0,-2.544708252E-3,-9.791588287E0,4.337979126E-1,9.801193208E0
6.773070917E0,-4.116439819E-2,-9.800120544E0,4.137396240E-1,9.808936623E0
6.783057917E0,-1.691482544E-2,-9.777517548E0,4.320016479E-1,9.787071111E0
6.793043917E0,-4.445755005E-2,-9.786798248E0,4.339476013E-1,9.796515041E0
6.803029917E0,-2.649490356E-2,-9.776320038E0,4.207749939E-1,9.785406842E0
6.813015917E0,-3.218307495E-2,-9.798324280E0,4.312532043E-1,9.807862854E0
6.823001917E0,-1.287322998E-2,-9.790241089E0,4.047583008E-1,9.798612942E0
6.832988917E0,-1.197509766E-2,-9.777218170E0,4.055067444E-1,9.785631010E0
6.842974917E0,-2.320175171E-2,-9.795330505E0,4.303550720E-1,9.804807164E0
6.852960917E0,-2.484832764E-2,-9.794582062E0,4.117936707E-1,9.803266253E0
6.862946917E0,-1.676513672E-2,-9.791588287E0,4.293072510E-1,9.801009488E0
6.872932917E0,-1.526824951E-2,-9.782906342E0,4.246669006E-1,9.792131105E0
6.882918917E0,-2.829116821E-2,-9.790839844E0,4.278103638E-1,9.800222801E0
6.892905917E0,-2.604583740E-2,-9.782457275E0,4.257147217E-1,9.791750699E0
6.902891917E0,-2.978805542E-2,-9.792785797E0,4.126918030E-1,9.801523122E0
6.912877917E0,-6.137237549E-3,-9.774523773E0,4.083508301E-1,9.783051827E0
6.922863917E0,-2.365081787E-2,-9.796078949E0,4.306544495E-1,9.805569101E0
6.932849917E0,-2.305206299E-2,-9.795779572E0,4.224215698E-1,9.804910443E0
6.942835917E0,-1.526824951E-2,-9.803862762E0,4.177812195E-1,9.812772255E0
6.952822917E0,-2.305206299E-2,-9.778864746E0,4.239184570E-1,9.788076112E0
6.962808917E0,-3.038681030E-2,-9.792486420E0,4.249662781E-1,9.801750353E0
6.972794917E0,-2.918930054E-2,-9.793683929E0,4.125421143E-1,9.802412352E0
6.982780917E0,-2.155517578E-2,-9.777816925E0,4.043092346E-1,9.786196115E0
6.992766917E0,-3.098556519E-2,-9.798623657E0,4.114942932E-1,9.807309174E0
7.002753917E0,-1.062789917E-2,-9.792037354E0,4.095483398E-1,9.800603978E0
7.012739917E0,-1.631607056E-2,-9.794432373E0,4.191284180E-1,9.803409629E0
7.022725917E0,-4.281097412E-2,-9.789492645E0,4.077520752E-1,9.798074341E0
7.032711917E0,-2.484832764E-2,-9.799222412E0,4.224215698E-1,9.808354465E0
7.042697917E0,-2.424957275E-2,-9.804760895E0,4.182302856E-1,9.813706783E0
7.052683917E0,-1.556762695E-2,-9.793234863E0,4.180805969E-1,9.802167251E0
7.062670917E0,-1.901046753E-2,-9.792336731E0,4.243675232E-1,9.801546197E0
7.072656917E0,-1.721420288E-2,-9.788444824E0,4.185296631E-1,9.797403507E0
7.082642917E0,-1.841171265E-2,-9.790989532E0,4.204756165E-1,9.800031365E0
7.092628917E0,-3.367996216E-2,-9.792785797E0,4.010160828E-1,9.801051061E0
7.102614917E0,-4.266128540E-2,-9.796228638E0,4.261637878E-1,9.805586728E0
7.112601917E0,-2.215393066E-2,-9.793085175E0,4.342469788E-1,9.802733214E0
7.122587917E0,-2.215393066E-2,-9.784702606E0,4.177812195E-1,9.793642685E0
7.132573917E0,-2.245330811E-3,-9.798024902E0,4.451742554E-1,9.808133214E0
7.142560292E0,-1.901046753E-2,-9.798773346E0,4.276606750E-1,9.808119806E0
7.152546292E0,-3.592529297E-2,-9.801018677E0,4.177812195E-1,9.809984652E0
7.162532292E0,-3.487747192E-2,-9.796078949E0,4.206253052E-1,9.805167253E0
7.172519292E0,-2.679428101E-2,-9.776619415E0,4.201762390E-1,9.785681029E0
7.182505292E0,-3.263214111E-2,-9.792785797E0,4.164340210E-1,9.801690457E0
7.192491292E0,-3.263214111E-2,-9.783954163E0,4.342469788E-1,9.793640506E0
7.202477292E0,-2.050735474E-2,-9.797276459E0,4.260140991E-1,9.806555694E0
7.212463292E0,-1.526824951E-2,-9.801018677E0,4.328997803E-1,9.810586244E0
7.222450292E0,-3.742218018E-2,-9.804910583E0,4.263134766E-1,9.814245521E0
7.232431292E0,-3.487747192E-2,-9.804910583E0,4.198768616E-1,9.813958659E0
7.242405292E0,-4.116439819E-2,-9.794881439E0,4.230203247E-1,9.804098281E0
7.252378292E0,-4.385879517E-2,-9.783654785E0,4.079017639E-1,9.792252468E0
7.262351292E0,-2.634521484E-2,-9.795480194E0,4.032614136E-1,9.803812833E0
7.272323292E0,-2.814147949E-2,-9.794881439E0,4.174818420E-1,9.803814841E0
7.282296292E0,-7.484436035E-3,-9.796228638E0,4.269122314E-1,9.805529338E0
7.292269292E0,-1.287322998E-2,-9.786947937E0,4.337979126E-1,9.796565534E0
7.302242292E0,-3.787124634E-2,-9.783505096E0,4.062551880E-1,9.792009471E0
7.312216292E0,-3.682342529E-2,-9.799821167E0,4.146377563E-1,9.808658182E0
7.322189292E0,-1.826202393E-2,-9.781559143E0,4.129911804E-1,9.790290827E0
7.332163292E0,-4.191284180E-3,-9.779014435E0,4.116439819E-1,9.787675498E0
7.342136292E0,-2.574645996E-2,-9.768685913E0,4.191284180E-1,9.777707092E0
7.352110292E0,-4.505630493E-2,-9.793833618E0,4.333488464E-1,9.803519686E0
7.362083292E0,-4.610412598E-2,-9.792486420E0,4.213737488E-1,9.801656580E0
7.372056292E0,-3.098556519E-2,-9.796528015E0,4.028123474E-1,9.804854871E0
7.382029292E0,-3.098556519E-2,-9.797575836E0,4.191284180E-1,9.806585593E0
7.392003292E0,-2.230361938E-2,-9.797126770E0,4.252656555E-1,9.806377582E0
7.401976292E0,-1.646575928E-2,-9.784103851E0,4.258644104E-1,9.793381428E0
7.411949292E0,-8.981323242E-3,-9.798623657E0,4.342469788E-1,9.808245341E0
7.421921292E0,-1.871109009E-2,-9.797725525E0,4.402345276E-1,9.807628766E0
7.431895292E0,-3.996688843E-2,-9.784253540E0,4.369413757E-1,9.794086606E0
7.441867292E0,-4.535568237E-2,-9.796977081E0,4.245172119E-1,9.806275130E0
7.451840292E0,-3.293151855E-2,-9.785750427E0,4.017645264E-1,9.794049757E0
7.461813292E0,-2.799179077E-2,-9.800868988E0,4.194277954E-1,9.809879517E0
7.471786292E0,-2.589614868E-2,-9.800719299E0,4.293072510E-1,9.810151584E0
7.481759292E0,-1.676513672E-2,-9.794132996E0,4.195774841E-1,9.803130493E0
7.491732292E0,-2.784210205E-2,-9.793683929E0,4.320016479E-1,9.803246682E0
7.501705292E0,-3.233276367E-2,-9.786349182E0,4.153862000E-1,9.795214210E0
7.511679292E0,-3.457809448E-2,-9.789193268E0,3.987707520E-1,9.797373045E0
7.521652292E0,-4.355941772E-2,-9.804012451E0,4.070036316E-1,9.812553670E0
7.531625292E0,-2.814147949E-2,-9.796827393E0,4.210743713E-1,9.805912631E0
7.541598292E0,-1.916015625E-2,-9.801916809E0,4.225712585E-1,9.811040042E0
7.551572292E0,-3.248245239E-2,-9.786648560E0,4.339476013E-1,9.796318475E0
7.561544292E0,-2.918930054E-2,-9.764195251E0,4.252656555E-1,9.773495373E0
7.571517292E0,-2.739303589E-2,-9.792037354E0,4.218228149E-1,9.801157095E0
7.581490292E0,-2.634521484E-2,-9.781708832E0,4.165837097E-1,9.790610999E0
7.591463292E0,-4.640350342E-2,-9.783505096E0,4.162843323E-1,9.792467406E0
7.601435292E0,-2.275268555E-2,-9.781858521E0,4.170327759E-1,9.790770661E0
7.611408292E0,-1.676513672E-2,-9.786947937E0,4.299060059E-1,9.796399857E0
7.621380292E0,-2.185455322E-2,-9.808203735E0,4.204756165E-1,9.817236774E0
7.631352292E0,-3.861968994E-2,-9.781858521E0,4.215234375E-1,9.791012696E0
7.641325292E0,-2.709365845E-2,-9.805958405E0,4.251159668E-1,9.815206462E0
7.651298292E0,-1.781295776E-2,-9.788295135E0,4.314028931E-1,9.797813400E0
7.661271292E0,-2.380050659E-2,-9.789642334E0,4.287084961E-1,9.799053754E0
7.671244292E0,-2.439926147E-2,-9.780361633E0,4.212240601E-1,9.789458550E0
7.681217292E0,-3.936813354E-2,-9.779912567E0,4.174818420E-1,9.788898342E0
7.691190292E0,-1.901046753E-2,-9.789492645E0,4.122427368E-1,9.798187165E0
7.701163292E0,-4.355941772E-2,-9.801617432E0,4.209246826E-1,9.810748151E0
7.711135292E0,-4.011657715E-2,-9.787097626E0,4.324507141E-1,9.796729194E0
7.721108292E0,-2.888992310E-2,-9.791588287E0,4.107458496E-1,9.800242240E0
7.731081292E0,-0.000000000E0,-9.776769104E0,4.290078735E-1,9.786177081E0
7.741054292E0,-3.128494263E-2,-9.797126770E0,4.397854614E-1,9.807042518E0
7.751026292E0,-4.071533203E-2,-9.786947937E0,4.176315308E-1,9.795939146E0
7.760999292E0,-3.936813354E-2,-9.804461517E0,4.258644104E-1,9.813784998E0
7.770971292E0,-2.529739380E-2,-9.774074707E0,4.188290405E-1,9.783076924E0
7.780944292E0,-3.053649902E-2,-9.781259766E0,4.149371338E-1,9.790104591E0
7.790917292E0,-1.317260742E-2,-9.796977081E0,4.231700134E-1,9.806120859E0
7.800890292E0,-2.529739380E-2,-9.786648560E0,4.143383789E-1,9.795448243E0
7.810863292E0,-1.841171265E-2,-9.777966614E0,4.342469788E-1,9.787621802E0
7.820837292E0,-1.287322998E-2,-9.787247314E0,4.161346436E-1,9.796098395E0
7.830811292E0,-4.116439819E-2,-9.793833618E0,4.336482239E-1,9.803515810E0
7.840784292E0,-2.933898926E-2,-9.802066498E0,4.330494690E-1,9.811671634E0
7.850758292E0,-1.496887207E-2,-9.796827393E0,4.192781067E-1,9.805806706E0
7.860731292E0,-2.888992310E-2,-9.786798248E0,4.242178345E-1,9.796030592E0
7.870705292E0,-2.215393066E-2,-9.795330505E0,4.276606750E-1,9.804686847E0
7.880678292E0,-2.529739380E-2,-9.790390778E0,4.020639038E-1,9.798675774E0
7.890652292E0,-3.427871704E-2,-9.807155914E0,4.239184570E-1,9.816373517E0
7.900625292E0,-2.544708252E-2,-9.795480194E0,4.278103638E-1,9.804850916E0
7.910598292E0,-1.601669312E-2,-9.794432373E0,4.218228149E-1,9.803524699E0
7.920571292E0,-2.290237427E-2,-9.792037354E0,4.326004028E-1,9.801615334E0
7.930544292E0,-1.706451416E-2,-9.786349182E0,4.333488464E-1,9.795953896E0
7.940517292E0,-2.604583740E-2,-9.792935486E0,4.242178345E-1,9.802154079E0
7.950490292E0,-4.296066284E-2,-9.797875214E0,4.314028931E-1,9.807462097E0
7.960462292E0,-2.664459229E-2,-9.811646576E0,4.149371338E-1,9.820452703E0
7.970435292E0,-2.454895020E-2,-9.790091400E0,4.282594299E-1,9.799484599E0
7.980409292E0,-3.652404785E-2,-9.756710815E0,4.261637878E-1,9.766081892E0
7.990382292E0,-1.212478638E-2,-9.773925018E0,4.314028931E-1,9.783448560E0
8.000355292E0,-3.338058472E-2,-9.812844086E0,4.104464722E-1,9.821481030E0
8.010328292E0,-3.577560425E-2,-9.789342957E0,4.177812195E-1,9.798319068E0
8.020301292E0,-3.263214111E-2,-9.786349182E0,4.358935547E-1,9.796106286E0
8.030274292E0,-2.125579834E-2,-9.793384552E0,4.269122314E-1,9.802708138E0
8.040247292E0,-1.437011719E-2,-9.789342957E0,4.185296631E-1,9.798296235E0
8.050222292E0,-2.799179077E-2,-9.776469727E0,4.326004028E-1,9.786076178E0
8.060196292E0,-3.023712158E-2,-9.776769104E0,4.167333984E-1,9.785693390E0
8.070169292E0,-3.622467041E-2,-9.808652802E0,4.173321533E-1,9.817593806E0
8.080143292E0,-3.293151855E-2,-9.793384552E0,4.180805969E-1,9.802359759E0
8.090116292E0,-3.293151855E-2,-9.782157898E0,4.314028931E-1,9.791721303E0
8.100090292E0,-3.742218018E-2,-9.792785797E0,4.218228149E-1,9.801938001E0
8.110063292E0,-2.529739380E-2,-9.793384552E0,4.171824646E-1,9.802298820E0
8.120036292E0,1.197509766E-3,-9.792636108E0,4.204756165E-1,9.801659203E0
8.130009292E0,-2.305206299E-2,-9.792187042E0,4.195774841E-1,9.801199097E0
8.139983167E0,-3.637435913E-2,-9.775421906E0,4.194277954E-1,9.784483441E0
8.149956167E0,-3.667373657E-2,-9.776918793E0,4.168830872E-1,9.785871323E0
8.159929167E0,-3.667373657E-2,-9.793234863E0,4.222718811E-1,9.802403154E0
8.169903167E0,-2.469863892E-2,-9.786349182E0,4.212240601E-1,9.795441289E0
8.179877167E0,-3.592529297E-2,-9.793234863E0,4.330494690E-1,9.802870577E0
8.189851167E0,-2.963836670E-2,-9.790540466E0,4.385879517E-1,9.800404096E0
8.199824167E0,-1.182540894E-2,-9.790390778E0,4.191284180E-1,9.799365288E0
8.209798167E0,-2.050735474E-2,-9.793534241E0,4.222718811E-1,9.802655100E0
8.219771167E0,-3.308120728E-2,-9.804311829E0,4.228706360E-1,9.813482785E0
8.229744167E0,-3.667373657E-2,-9.798773346E0,4.373904419E-1,9.808599005E0
8.239718167E0,-3.218307495E-2,-9.789342957E0,4.159849548E-1,9.798230185E0
8.249692167E0,-2.260299683E-2,-9.800868988E0,4.233197021E-1,9.810032792E0
8.259665167E0,-1.137634277E-2,-9.786498871E0,4.275109863E-1,9.795838668E0
8.269639167E0,-9.729766846E-3,-9.795629883E0,4.249662781E-1,9.804848587E0
8.279613167E0,-3.502716064E-2,-9.797725525E0,4.170327759E-1,9.806659406E0
8.289587167E0,-2.829116821E-2,-9.793384552E0,4.243675232E-1,9.802615425E0
8.299560167E0,-2.439926147E-2,-9.794132996E0,4.143383789E-1,9.802923684E0
8.309534167E0,-3.996688843E-2,-9.787247314E0,4.261637878E-1,9.796602621E0
8.319507167E0,-2.694396973E-2,-9.780361633E0,4.242178345E-1,9.789594498E0
8.329481167E0,-1.541793823E-2,-9.797725525E0,4.267625427E-1,9.807027554E0
8.339455167E0,-2.559677124E-2,-9.786648560E0,4.358935547E-1,9.796384456E0
8.349428167E0,-3.263214111E-2,-9.791438599E0,4.200265503E-1,9.800497793E0
8.359402167E0,-2.589614868E-2,-9.796228638E0,4.019142151E-1,9.804504127E0
8.369375167E0,-2.589614868E-2,-9.792636108E0,4.064048767E-1,9.801099810E0
8.379348167E0,-3.996688843E-2,-9.783355408E0,4.360432434E-1,9.793149345E0
8.389322167E0,-3.742218018E-2,-9.788744202E0,4.417314148E-1,9.798777480E0
8.399295167E0,-3.203338623E-2,-9.789642334E0,4.343966675E-1,9.799327713E0
8.409269167E0,5.388793945E-3,-9.761650543E0,4.186793518E-1,9.770626529E0
8.419242167E0,-1.347198486E-3,-9.789792023E0,4.023632813E-1,9.798057250E0
8.429216167E0,-1.930984497E-2,-9.796078949E0,4.132905579E-1,9.804812325E0
8.439190167E0,-2.844085693E-2,-9.780361633E0,4.210743713E-1,9.789463018E0
8.449163167E0,-3.772155762E-2,-9.785451050E0,4.174818420E-1,9.794425264E0
8.459137167E0,-3.981719971E-2,-9.780810699E0,4.209246826E-1,9.789944889E0
8.469111167E0,-4.311035156E-2,-9.800868988E0,4.219725037E-1,9.810043436E0
8.479085167E0,-1.960922241E-2,-9.788145447E0,4.273612976E-1,9.797490163E0
8.489058167E0,-2.499801636E-2,-9.782008209E0,4.318519592E-1,9.791568088E0
8.499031167E0,-2.050735474E-2,-9.784552917E0,4.331991577E-1,9.794159375E0
8.509004167E0,-2.814147949E-2,-9.792785797E0,4.161346436E-1,9.801663821E0
8.518978167E0,-3.891906738E-2,-9.799072723E0,4.198768616E-1,9.808141389E0
8.528951167E0,-3.622467041E-2,-9.800569611E0,4.228706360E-1,9.809755170E0
8.538925167E0,-2.829116821E-2,-9.784253540E0,4.242178345E-1,9.793486534E0
8.548898167E0,-2.829116821E-2,-9.780062256E0,4.158352661E-1,9.788939528E0
8.558871167E0,-2.589614868E-2,-9.774972839E0,4.228706360E-1,9.784149641E0
8.568844167E0,-1.736389160E-2,-9.784403229E0,4.210743713E-1,9.793474954E0
8.578817167E0,-1.646575928E-2,-9.795330505E0,4.137396240E-1,9.804078300E0
8.588791167E0,-3.248245239E-2,-9.787846069E0,4.278103638E-1,9.797244893E0
8.598764167E0,-4.161346436E-2,-9.788295135E0,4.343966675E-1,9.798017851E0
8.608738167E0,-4.760101318E-2,-9.784403229E0,4.111949158E-1,9.793155450E0
8.618712167E0,-3.562591553E-2,-9.807904358E0,4.191284180E-1,9.816920379E0
8.628686167E0,-2.844085693E-2,-9.800719299E0,4.179309082E-1,9.809667370E0
8.638660167E0,-2.948867798E-2,-9.802515564E0,4.159849548E-1,9.811382392E0
8.648634167E0,-2.499801636E-2,-9.792336731E0,4.384382629E-1,9.802178924E0
8.658609167E0,-2.814147949E-2,-9.786349182E0,4.408332825E-1,9.796313400E0
8.668583167E0,-2.604583740E-2,-9.784702606E0,4.366419983E-1,9.794474958E0
8.678557167E0,-3.143463135E-2,-9.793833618E0,4.337979126E-1,9.803486406E0
8.688531167E0,-2.903961182E-2,-9.786049805E0,4.306544495E-1,9.795564166E0
8.698505167E0,-2.859054565E-2,-9.792187042E0,4.147874451E-1,9.801009801E0
8.708480167E0,-1.960922241E-2,-9.793683929E0,4.029620361E-1,9.801989994E0
8.718454167E0,-2.709365845E-2,-9.801318054E0,4.367916870E-1,9.811083357E0
8.728427167E0,-4.206253052E-2,-9.791139221E0,4.116439819E-1,9.799878942E0
8.738400167E0,-2.784210205E-2,-9.795929260E0,4.159849548E-1,9.804797231E0
8.748374167E0,-3.338058472E-2,-9.770781555E0,4.333488464E-1,9.780443634E0
8.758347167E0,-2.679428101E-2,-9.788295135E0,4.140390015E-1,9.797084663E0
8.768321167E0,-3.682342529E-2,-9.798024902E0,4.312532043E-1,9.807580093E0
8.778295167E0,-2.365081787E-2,-9.794282684E0,4.372407532E-1,9.804066102E0
8.788269167E0,-8.232879639E-3,-9.781708832E0,4.323010254E-1,9.791260370E0
8.798243167E0,-2.380050659E-2,-9.796378326E0,4.182302856E-1,9.805330762E0
8.808217167E0,-2.649490356E-2,-9.789043579E0,4.204756165E-1,9.798105731E0
8.818192167E0,-1.616638184E-2,-9.794432373E0,4.317022705E-1,9.803955004E0
8.828166167E0,-2.844085693E-2,-9.799821167E0,4.285588074E-1,9.809228636E0
8.838140167E0,-3.203338623E-2,-9.789792023E0,4.225712585E-1,9.798960172E0
8.848114167E0,-3.442840576E-2,-9.793983307E0,4.152365112E-1,9.802842225E0
8.858088167E0,-1.930984497E-2,-9.783505096E0,4.192781067E-1,9.792504224E0
8.868061167E0,-2.754272461E-2,-9.779463501E0,4.270619202E-1,9.788822547E0
8.878035167E0,-3.847000122E-2,-9.777966614E0,4.343966675E-1,9.787686729E0
8.888009167E0,-4.281097412E-2,-9.794132996E0,4.273612976E-1,9.803545868E0
8.897980167E0,-4.879852295E-2,-9.793234863E0,4.269122314E-1,9.802657009E0
8.907949167E0,-2.439926147E-2,-9.780361633E0,4.162843323E-1,9.789247246E0
8.917919167E0,-1.646575928E-2,-9.791737976E0,4.158352661E-1,9.800577671E0
8.927888167E0,-3.263214111E-2,-9.780661011E0,4.360432434E-1,9.790430449E0
8.937857167E0,-3.008743286E-2,-9.787995758E0,4.179309082E-1,9.796960368E0
8.947826167E0,-9.280700684E-3,-9.792935486E0,4.141886902E-1,9.801694947E0
8.957794167E0,-3.128494263E-2,-9.794881439E0,4.363426208E-1,9.804645636E0
8.967763167E0,-1.047821045E-2,-9.797875214E0,4.290078735E-1,9.807268542E0
8.977732167E0,-1.930984497E-2,-9.782307587E0,4.248165894E-1,9.791546544E0
8.987701167E0,-7.783813477E-3,-9.782157898E0,4.251159668E-1,9.791394043E0
8.997669167E0,-2.484832764E-2,-9.785301361E0,4.129911804E-1,9.794044205E0
9.007637167E0,-3.712280273E-2,-9.785750427E0,4.242178345E-1,9.795011501E0
9.017606167E0,-5.583389282E-2,-9.789342957E0,4.155358887E-1,9.798317357E0
9.027574167E0,-3.382965088E-2,-9.788594513E0,4.435276794E-1,9.798696025E0
9.037542167E0,-1.990859985E-2,-9.797575836E0,4.340972900E-1,9.807208016E0
9.047510167E0,-2.454895020E-2,-9.790390778E0,4.144880676E-1,9.799191527E0
9.057479167E0,-1.332229614E-2,-9.787696381E0,4.123924255E-1,9.796389408E0
9.067448167E0,-1.841171265E-2,-9.769284668E0,4.143383789E-1,9.778084588E0
9.077416167E0,-3.562591553E-2,-9.780661011E0,4.342469788E-1,9.790361048E0
9.087385167E0,-5.149291992E-2,-9.781110077E0,4.337979126E-1,9.790860355E0
9.097354167E0,-4.056564331E-2,-9.796378326E0,4.046086121E-1,9.804814226E0
9.107323167E0,-3.861968994E-2,-9.799970856E0,4.101470947E-1,9.808625841E0
9.117292167E0,-1.751358032E-2,-9.793234863E0,4.138893127E-1,9.801992664E0
9.127261167E0,-1.930984497E-2,-9.792486420E0,4.306544495E-1,9.801970537E0
9.137230167E0,-2.574645996E-2,-9.765692139E0,4.147874451E-1,9.774530907E0
9.147198583E0,-2.993774414E-2,-9.790241089E0,4.317022705E-1,9.799800187E0
9.157167583E0,-4.834945679E-2,-9.800120544E0,4.227209473E-1,9.809352341E0
9.167136583E0,-5.254074097E-2,-9.802216187E0,4.258644104E-1,9.811603498E0
9.177104583E0,-3.248245239E-2,-9.802814941E0,4.155358887E-1,9.811671925E0
9.187072583E0,1.347198486E-3,-9.784403229E0,4.236190796E-1,9.793569394E0
9.197041583E0,-4.041595459E-3,-9.783954163E0,4.376898193E-1,9.793740234E0
9.207010583E0,-4.340972900E-3,-9.783505096E0,4.370910645E-1,9.793265003E0
9.216979583E0,-2.230361938E-2,-9.774673462E0,4.315525818E-1,9.784220785E0
9.226948583E0,-3.667373657E-2,-9.803563385E0,4.330494690E-1,9.813191726E0
9.236917583E0,-2.574645996E-2,-9.808802490E0,4.233197021E-1,9.817966630E0
9.246886583E0,-4.490661621E-2,-9.776619415E0,4.056564331E-1,9.785134692E0
9.256854583E0,-3.712280273E-2,-9.776619415E0,3.993695068E-1,9.784843448E0
9.266822583E0,-3.218307495E-2,-9.804611206E0,4.231700134E-1,9.813791801E0
9.276791583E0,-1.975891113E-2,-9.805359650E0,4.379891968E-1,9.815156790E0
9.286759583E0,-8.981323242E-3,-9.764794006E0,4.462220764E-1,9.774988327E0
9.296728583E0,-3.742218018E-3,-9.777517548E0,4.737648010E-1,9.788989554E0
9.306696583E0,-3.742218018E-3,-9.807155914E0,4.511618042E-1,9.817528615E0
9.316664583E0,-3.772155762E-2,-9.774074707E0,4.245172119E-1,9.783362109E0
9.326632583E0,-5.748046875E-2,-9.774823151E0,3.992198181E-1,9.783141014E0
9.336601583E0,-7.589218140E-2,-9.812844086E0,3.817062378E-1,9.820558453E0
9.346570583E0,-6.107299805E-2,-9.788594513E0,4.049079895E-1,9.797155859E0
9.356538583E0,-1.586700439E-2,-9.761650543E0,4.010160828E-1,9.769896979E0
9.366506583E0,-2.694396973E-3,-9.785151672E0,4.328997803E-1,9.794723208E0
9.376474583E0,2.080673218E-2,-9.814340973E0,4.653822327E-1,9.825390693E0
9.386443583E0,2.499801636E-2,-9.787097626E0,4.646337891E-1,9.798152346E0
9.396411583E0,-1.317260742E-2,-9.765692139E0,4.472698975E-1,9.775938156E0
9.406380583E0,-4.790039063E-2,-9.815538483E0,4.213737488E-1,9.824695720E0
9.416348583E0,-6.526428223E-2,-9.798473969E0,4.011657715E-1,9.806899893E0
9.426317583E0,-5.987548828E-2,-9.764943695E0,3.832031250E-1,9.772643198E0
9.436285583E0,-2.993774414E-2,-9.808503113E0,4.056564331E-1,9.816933672E0
9.446254583E0,2.993774414E-3,-9.798773346E0,4.308041382E-1,9.808239406E0
9.456222583E0,5.987548828E-3,-9.765991516E0,4.441264343E-1,9.776086867E0
9.466190583E0,-1.047821045E-2,-9.781259766E0,4.677772522E-1,9.792444432E0
9.476159583E0,-3.891906738E-2,-9.804760895E0,4.427792358E-1,9.814830837E0
9.486128583E0,-4.760101318E-2,-9.785301361E0,4.212240601E-1,9.794478970E0
9.496096583E0,-1.781295776E-2,-9.782457275E0,4.189787292E-1,9.791441713E0
9.506065583E0,-2.439926147E-2,-9.786798248E0,3.965254211E-1,9.794858227E0
9.516033583E0,-3.308120728E-2,-9.784552917E0,3.972738647E-1,9.792670559E0
9.526002583E0,-6.735992432E-3,-9.782906342E0,3.978726196E-1,9.790996092E0
9.535970583E0,-2.799179077E-2,-9.775870972E0,4.315525818E-1,9.785431744E0
9.545938583E0,-6.316864014E-2,-9.795480194E0,4.433779907E-1,9.805712955E0
9.555907583E0,-4.819976807E-2,-9.797575836E0,4.529580688E-1,9.808159180E0
9.565876583E0,-2.320175171E-2,-9.781858521E0,4.123924255E-1,9.790575159E0
9.575845583E0,-8.681945801E-3,-9.799372101E0,4.125421143E-1,9.808055870E0
9.585814583E0,-1.137634277E-2,-9.797875214E0,4.279600525E-1,9.807223763E0
9.595782583E0,-9.729766846E-3,-9.784552917E0,4.174818420E-1,9.793460142E0
9.605750583E0,-3.472778320E-2,-9.788295135E0,4.197271729E-1,9.797351610E0
9.615718583E0,-5.733078003E-2,-9.800569611E0,4.308041382E-1,9.810201003E0
9.625686583E0,-6.286926270E-2,-9.792187042E0,4.105961609E-1,9.800993257E0
9.635654583E0,-2.395019531E-2,-9.782906342E0,4.236190796E-1,9.792103105E0
9.645623583E0,-6.885681152E-3,-9.788145447E0,4.284091187E-1,9.797518720E0
9.655591583E0,6.586303711E-3,-9.792187042E0,4.382885742E-1,9.801993028E0
9.665560583E0,5.239105225E-3,-9.791737976E0,4.345463562E-1,9.801376973E0
9.675528583E0,-1.676513672E-2,-9.797426147E0,4.182302856E-1,9.806363075E0
9.685496583E0,-5.792953491E-2,-9.783355408E0,4.174818420E-1,9.792430237E0
9.695464583E0,-6.316864014E-2,-9.795929260E0,4.113446045E-1,9.804765409E0
9.705433583E0,-5.463638306E-2,-9.779463501E0,4.255650330E-1,9.788871084E0
9.715402583E0,-1.646575928E-2,-9.796977081E0,4.227209473E-1,9.806106468E0
9.725371583E0,2.844085693E-3,-9.795031128E0,4.321513367E-1,9.804560044E0
9.735340583E0,2.694396973E-3,-9.799671478E0,4.538562012E-1,9.810176033E0
9.745309583E0,-2.320175171E-2,-9.799222412E0,4.237687683E-1,9.808408544E0
9.755277583E0,-5.448669434E-2,-9.781708832E0,4.249662781E-1,9.791087417E0
9.765246583E0,-3.981719971E-2,-9.803264008E0,4.108955383E-1,9.811952189E0
9.775215583E0,-5.718109131E-2,-9.799821167E0,4.007167053E-1,9.808177122E0
9.785183583E0,-2.799179077E-2,-9.786049805E0,4.221221924E-1,9.795189711E0
9.795152583E0,-1.811233521E-2,-9.811945953E0,4.297563171E-1,9.821369657E0
9.805121583E0,-1.137634277E-2,-9.798473969E0,4.263134766E-1,9.807750237E0
9.815091583E0,-1.721420288E-2,-9.787247314E0,4.390370178E-1,9.797104665E0
9.825059583E0,-2.978805542E-2,-9.789492645E0,4.336482239E-1,9.799137940E0
9.835028583E0,-3.951782227E-2,-9.777068481E0,4.047583008E-1,9.785522931E0
9.844997583E0,-4.625381470E-2,-9.773026886E0,4.029620361E-1,9.781440197E0
9.854965583E0,-5.209167480E-2,-9.789193268E0,4.249662781E-1,9.798551664E0
9.864934583E0,-2.604583740E-2,-9.811646576E0,4.144880676E-1,9.820432133E0
9.874903583E0,4.939727783E-3,-9.778715057E0,4.150868225E-1,9.787522140E0
9.884872583E0,-5.837860107E-3,-9.807155914E0,4.285588074E-1,9.816516890E0
9.894841583E0,-2.769241333E-2,-9.808203735E0,4.326004028E-1,9.817778287E0
9.904811583E0,-4.041595459E-2,-9.791887665E0,4.278103638E-1,9.801312116E0
9.914781583E0,-4.730163574E-2,-9.788444824E0,4.273612976E-1,9.797883812E0
9.924750583E0,-5.538482666E-3,-9.777816925E0,4.077520752E-1,9.786316787E0
9.934720583E0,-2.634521484E-2,-9.819280701E0,4.129911804E-1,9.827997215E0
9.944689583E0,-3.996688843E-2,-9.776769104E0,4.252656555E-1,9.786095357E0
9.954658583E0,-5.269042969E-2,-9.794582062E0,4.287084961E-1,9.804101439E0
9.964628583E0,-2.784210205E-2,-9.784552917E0,4.264631653E-1,9.793881856E0
9.974596583E0,-3.323089600E-2,-9.808802490E0,4.361929321E-1,9.818552585E0
9.984565583E0,-2.814147949E-2,-9.786199493E0,4.339476013E-1,9.795856419E0
9.994534583E0,-2.694396973E-3,-9.788893890E0,4.311035156E-1,9.798382576E0
1.000450358E1,-1.796264648E-3,-9.773925018E0,4.212240601E-1,9.782997659E0
1.001447258E1,-3.158432007E-2,-9.784103851E0,4.285588074E-1,9.793536052E0
1.002444158E1,-3.053649902E-2,-9.792037354E0,4.287084961E-1,9.801465145E0
1.003441158E1,-2.454895020E-2,-9.771529999E0,4.206253052E-1,9.780609736E0
1.004438058E1,-3.068618774E-2,-9.783954163E0,4.239184570E-1,9.793181687E0
1.005434958E1,-2.439926147E-2,-9.795031128E0,4.147874451E-1,9.803840000E0
1.006431858E1,-1.347198486E-2,-9.789342957E0,4.089495850E-1,9.797890425E0
1.007428858E1,-5.987548828E-3,-9.805808716E0,4.336482239E-1,9.815394603E0
1.008425758E1,-1.751358032E-2,-9.800868988E0,4.388873291E-1,9.810706485E0
1.009422758E1,-3.338058472E-2,-9.783355408E0,4.197271729E-1,9.792411766E0
1.010419658E1,-3.412902832E-2,-9.794282684E0,4.123924255E-1,9.803020229E0
1.011416558E1,-1.901046753E-2,-9.786947937E0,4.198768616E-1,9.795968962E0
1.012413458E1,-1.422042847E-2,-9.776769104E0,4.035607910E-1,9.785104887E0
1.013410358E1,-2.170486450E-2,-9.783355408E0,4.168830872E-1,9.792257433E0
1.014407204E1,-2.514770508E-2,-9.795330505E0,4.207749939E-1,9.804396142E0
1.015404104E1,-3.113525391E-2,-9.802814941E0,4.135899353E-1,9.811585336E0
1.016401004E1,-3.068618774E-2,-9.790390778E0,4.240681458E-1,9.799618718E0
1.017397804E1,-2.589614868E-2,-9.809550934E0,4.221221924E-1,9.818663212E0
1.018394704E1,-3.188369751E-2,-9.796677704E0,4.279600525E-1,9.806072629E0
1.019391604E1,-2.245330811E-2,-9.784253540E0,4.173321533E-1,9.793175563E0
1.020388404E1,-2.155517578E-2,-9.783804474E0,4.170327759E-1,9.792712134E0
1.021385304E1,-2.350112915E-2,-9.797575836E0,4.369413757E-1,9.807342267E0
1.022382204E1,-2.918930054E-2,-9.785301361E0,4.107458496E-1,9.793961757E0
1.023379104E1,-2.903961182E-2,-9.784253540E0,4.231700134E-1,9.793443393E0
1.024375904E1,-2.754272461E-2,-9.795031128E0,4.246669006E-1,9.804271282E0
1.025372804E1,-2.290237427E-2,-9.782157898E0,4.346960449E-1,9.791838352E0
1.026369604E1,-1.182540894E-2,-9.792935486E0,4.216731262E-1,9.802016808E0
1.027366404E1,-4.041595459E-2,-9.794282684E0,4.165837097E-1,9.803221345E0
1.028363304E1,-3.412902832E-2,-9.797575836E0,4.258644104E-1,9.806886231E0
1.029360104E1,-2.724334717E-2,-9.794132996E0,4.290078735E-1,9.803562163E0
1.030356904E1,-2.424957275E-2,-9.768985291E0,4.264631653E-1,9.778319512E0
1.031353804E1,-1.152603149E-2,-9.788744202E0,4.266128540E-1,9.798042887E0
1.032350504E1,-2.155517578E-2,-9.796078949E0,4.266128540E-1,9.805387597E0
1.033347304E1,-2.859054565E-2,-9.796827393E0,4.336482239E-1,9.806461908E0
1.034344104E1,-2.874023438E-2,-9.798923035E0,4.252656555E-1,9.808188901E0
1.035340904E1,-1.990859985E-2,-9.775870972E0,4.315525818E-1,9.785411961E0
1.036337804E1,-2.649490356E-2,-9.789342957E0,4.185296631E-1,9.798321518E0
1.037334604E1,-2.170486450E-2,-9.794282684E0,4.242178345E-1,9.803489439E0
1.038331404E1,-1.871109009E-2,-9.800120544E0,4.240681458E-1,9.809309180E0
1.039328304E1,-2.993774414E-2,-9.792336731E0,4.185296631E-1,9.801322462E0
1.040325104E1,-4.236190796E-2,-9.789792023E0,4.213737488E-1,9.798947812E0
1.041322004E1,-3.966751099E-2,-9.795480194E0,4.128414917E-1,9.804256415E0
1.042318904E1,-3.188369751E-2,-9.801318054E0,4.237687683E-1,9.810526598E0
1.043315804E1,-4.086502075E-2,-9.790241089E0,4.191284180E-1,9.799293809E0
1.044312704E1,-1.916015625E-2,-9.795779572E0,4.128414917E-1,9.804494001E0
1.045309604E1,7.035369873E-3,-9.784852295E0,4.153862000E-1,9.793667833E0
1.046306504E1,3.742218018E-3,-9.799521790E0,4.230203247E-1,9.808648607E0
1.047303304E1,5.538482666E-3,-9.780960388E0,4.355941772E-1,9.790656723E0
1.048300204E1,-3.682342529E-2,-9.796528015E0,4.472698975E-1,9.806802102E0
1.049297104E1,-2.230361938E-2,-9.805659027E0,4.412823486E-1,9.815608821E0
1.050293904E1,-3.293151855E-2,-9.792785797E0,4.278103638E-1,9.802181383E0
1.051290804E1,-3.712280273E-2,-9.803413696E0,4.203259277E-1,9.812490616E0
1.052287804E1,-2.230361938E-2,-9.793085175E0,4.158352661E-1,9.801935200E0
1.053284604E1,-7.783813477E-3,-9.777517548E0,4.195774841E-1,9.786519057E0
1.054281404E1,-3.442840576E-3,-9.805060272E0,4.216731262E-1,9.814123854E0
1.055278304E1,-1.960922241E-2,-9.800120544E0,4.349954224E-1,9.809789408E0
1.056275204E1,-1.167572021E-2,-9.775870972E0,4.331991577E-1,9.785471429E0
1.057272004E1,-2.155517578E-2,-9.785900116E0,4.249662781E-1,9.795146862E0
1.058268804E1,-2.589614868E-2,-9.793833618E0,4.095483398E-1,9.802427117E0
1.059265604E1,-5.254074097E-2,-9.779762878E0,4.206253052E-1,9.788945200E0
1.060262404E1,-2.679428101E-2,-9.782307587E0,4.294569397E-1,9.791766588E0
1.061259204E1,-1.736389160E-2,-9.796228638E0,4.189787292E-1,9.805199651E0
1.062256004E1,-2.814147949E-2,-9.796677704E0,4.260140991E-1,9.805976442E0
1.063252804E1,-3.502716064E-2,-9.770482178E0,4.384382629E-1,9.780377140E0
1.064249604E1,-1.826202393E-2,-9.795031128E0,4.412823486E-1,9.804983346E0
1.065246404E1,-1.646575928E-2,-9.799821167E0,4.258644104E-1,9.809083878E0
1.066243304E1,-1.182540894E-2,-9.791139221E0,4.180805969E-1,9.800068289E0
1.067240104E1,-3.008743286E-2,-9.786349182E0,4.040098572E-1,9.794731213E0
1.068236904E1,-3.502716064E-2,-9.774823151E0,4.180805969E-1,9.783822664E0
1.069233804E1,-2.679428101E-2,-9.787546692E0,4.167333984E-1,9.796451138E0
1.070230704E1,-2.799179077E-2,-9.791588287E0,4.180805969E-1,9.800549786E0
1.071227504E1,-2.948867798E-2,-9.806856537E0,4.104464722E-1,9.815486286E0
1.072224304E1,-2.888992310E-2,-9.774074707E0,4.008663940E-1,9.782334326E0
1.073221204E1,-3.996688843E-2,-9.775721283E0,4.122427368E-1,9.784491199E0
1.074218004E1,-1.392105103E-2,-9.780661011E0,4.309538269E-1,9.790160612E0
1.075214904E1,-2.050735474E-2,-9.787696381E0,4.311035156E-1,9.797207318E0
1.076211704E1,-1.856140137E-2,-9.775421906E0,4.312532043E-1,9.784947485E0
1.077208604E1,-1.856140137E-2,-9.796827393E0,4.323010254E-1,9.806378315E0
1.078205404E1,-2.993774414E-2,-9.803413696E0,4.273612976E-1,9.812769948E0
1.079202304E1,-2.290237427E-2,-9.781259766E0,4.249662781E-1,9.790513953E0
1.080199104E1,-2.365081787E-2,-9.783056030E0,4.152365112E-1,9.791892872E0
1.081196004E1,-3.502716064E-2,-9.804611206E0,4.180805969E-1,9.813583402E0
1.082192804E1,-1.511856079E-2,-9.808503113E0,4.279600525E-1,9.817846591E0
1.083189704E1,-1.451980591E-2,-9.814939728E0,4.305047607E-1,9.824387362E0
1.084186504E1,-3.128494263E-2,-9.778565369E0,4.278103638E-1,9.787969203E0
1.085183404E1,-3.188369751E-2,-9.781409454E0,4.114942932E-1,9.790113127E0
1.086180304E1,-3.128494263E-2,-9.792935486E0,4.134402466E-1,9.801708882E0
1.087177104E1,-3.876937866E-2,-9.791588287E0,4.077520752E-1,9.800151326E0
1.088174004E1,-2.784210205E-2,-9.780661011E0,4.087998962E-1,9.789240131E0
1.089170904E1,-1.661544800E-2,-9.792636108E0,4.228706360E-1,9.801776247E0
1.090167804E1,-2.529739380E-2,-9.781708832E0,4.239184570E-1,9.790923066E0
1.091164704E1,-1.916015625E-2,-9.782307587E0,4.186793518E-1,9.791281899E0
1.092161504E1,-2.829116821E-2,-9.786648560E0,4.150868225E-1,9.795488119E0
1.093158404E1,-3.742218018E-2,-9.791288910E0,4.397854614E-1,9.801232075E0
1.094155204E1,-3.233276367E-2,-9.804012451E0,4.242178345E-1,9.813239339E0
1.095152104E1,-2.125579834E-2,-9.790690155E0,4.185296631E-1,9.799654718E0
1.096149004E1,-3.682342529E-2,-9.800120544E0,4.451742554E-1,9.810295549E0
1.097145804E1,-2.215393066E-2,-9.795779572E0,4.153862000E-1,9.804607789E0
1.098142704E1,-2.978805542E-2,-9.775122528E0,4.288581848E-1,9.784570870E0
1.099139504E1,-2.395019531E-2,-9.798923035E0,4.300556946E-1,9.808384890E0
1.100136404E1,-2.469863892E-2,-9.798923035E0,4.300556946E-1,9.808386746E0
1.101133204E1,-1.960922241E-2,-9.789043579E0,4.161346436E-1,9.797904202E0
1.102130004E1,-1.287322998E-2,-9.790690155E0,4.188290405E-1,9.799652912E0
1.103126904E1,-2.035766602E-2,-9.785900116E0,4.387376404E-1,9.795751438E0
1.104123804E1,-3.592529297E-2,-9.785451050E0,4.369413757E-1,9.795267257E0
1.105120704E1,-3.023712158E-2,-9.787696381E0,4.198768616E-1,9.796744934E0
1.106117504E1,-2.978805542E-2,-9.771529999E0,4.174818420E-1,9.780489606E0
1.107114304E1,-3.188369751E-2,-9.784403229E0,4.334985352E-1,9.794053507E0
1.108111204E1,-3.861968994E-2,-9.793384552E0,4.251159668E-1,9.802683105E0
1.109108104E1,-4.266128540E-2,-9.803413696E0,4.303550720E-1,9.812947853E0
1.110104904E1,-5.328918457E-2,-9.788744202E0,4.373904419E-1,9.798656193E0
1.111101704E1,-3.457809448E-2,-9.793534241E0,4.228706360E-1,9.802720446E0
1.112098604E1,-1.930984497E-2,-9.795180817E0,4.248165894E-1,9.804407643E0
1.113095404E1,1.646575928E-3,-9.789193268E0,4.234693909E-1,9.798348528E0
1.114092204E1,8.981323242E-4,-9.789941711E0,4.219725037E-1,9.799031601E0
1.115089042E1,-2.200424194E-2,-9.780960388E0,4.258644104E-1,9.790251825E0
1.116085842E1,-2.724334717E-2,-9.789941711E0,4.492158508E-1,9.800280394E0
1.117082742E1,-4.026626587E-2,-9.778265991E0,4.153862000E-1,9.787167765E0
1.118079642E1,-2.035766602E-2,-9.792037354E0,4.273612976E-1,9.801379885E0
1.119076442E1,-1.032852173E-2,-9.800270233E0,4.206253052E-1,9.809298087E0
1.120073342E1,-2.350112915E-2,-9.799671478E0,4.195774841E-1,9.808677722E0
1.121070142E1,-2.903961182E-2,-9.785001984E0,4.185296631E-1,9.793991740E0
1.122066942E1,-1.272354126E-2,-9.795480194E0,4.267625427E-1,9.804780487E0
1.123063642E1,-2.320175171E-2,-9.782008209E0,4.218228149E-1,9.791126463E0
1.124060342E1,-4.445755005E-2,-9.797875214E0,4.309538269E-1,9.807449025E0
1.125057142E1,-3.278182983E-2,-9.798623657E0,4.333488464E-1,9.808256290E0
1.126053842E1,-2.933898926E-2,-9.793983307E0,4.233197021E-1,9.803171393E0
1.127050742E1,-1.242416382E-2,-9.786498871E0,4.095483398E-1,9.795072453E0
1.128047542E1,-1.916015625E-2,-9.789193268E0,4.207749939E-1,9.798251045E0
1.129044242E1,-1.122665405E-2,-9.777966614E0,4.147874451E-1,9.786766870E0
1.130041042E1,-1.826202393E-2,-9.795031128E0,4.221221924E-1,9.804139710E0
1.131037842E1,-2.993774414E-2,-9.804162140E0,4.275109863E-1,9.813524198E0
1.132034642E1,-3.577560425E-2,-9.795629883E0,4.240681458E-1,9.804870141E0
1.133031442E1,-2.589614868E-2,-9.788744202E0,4.261637878E-1,9.798050787E0
1.134028342E1,-2.604583740E-2,-9.794881439E0,4.297563171E-1,9.804339411E0
1.135025142E1,-1.826202393E-2,-9.796078949E0,4.299060059E-1,9.805524741E0
1.136021942E1,-1.541793823E-2,-9.788744202E0,4.315525818E-1,9.798264560E0
1.137018742E1,-2.245330811E-2,-9.785750427E0,4.207749939E-1,9.794818384E0
1.138015542E1,-3.143463135E-2,-9.790390778E0,4.020639038E-1,9.798693540E0
1.139012442E1,-4.071533203E-2,-9.786648560E0,4.306544495E-1,9.796203909E0
1.140009242E1,-1.826202393E-2,-9.795629883E0,4.155358887E-1,9.804456557E0
1.141005942E1,-1.706451416E-2,-9.794282684E0,4.132905579E-1,9.803013495E0
1.142002742E1,-2.080673218E-2,-9.801168365E0,4.182302856E-1,9.810109623E0
1.142999642E1,-3.891906738E-2,-9.788893890E0,4.306544495E-1,9.798439751E0
1.143996542E1,-3.397933960E-2,-9.793085175E0,4.361929321E-1,9.802853468E0
1.144993442E1,-4.221221924E-2,-9.792187042E0,4.346960449E-1,9.801921730E0
1.145990242E1,-1.706451416E-2,-9.784852295E0,4.340972900E-1,9.794491620E0
1.146987142E1,-2.170486450E-2,-9.785750427E0,4.324507141E-1,9.795325219E0
1.147983942E1,-2.065704346E-2,-9.791887665E0,4.168830872E-1,9.800779676E0
1.148980742E1,-1.901046753E-2,-9.789043579E0,4.141886902E-1,9.797820567E0
1.149977542E1,-2.604583740E-2,-9.800120544E0,4.037104797E-1,9.808466915E0
1.150974342E1,-3.143463135E-2,-9.791887665E0,4.337979126E-1,9.801542369E0
1.151971242E1,-2.933898926E-2,-9.793833618E0,4.276606750E-1,9.803210258E0
1.152968142E1,-3.128494263E-2,-9.793833618E0,4.147874451E-1,9.802663123E0
1.153964942E1,-2.589614868E-2,-9.790989532E0,4.197271729E-1,9.800016201E0
1.154961942E1,-3.293151855E-2,-9.775122528E0,4.230203247E-1,9.784326810E0
1.155958842E1,-4.864883423E-2,-9.802066498E0,4.260140991E-1,9.811440381E0
1.156955842E1,-3.442840576E-2,-9.789941711E0,4.257147217E-1,9.799253903E0
1.157952742E1,-2.604583740E-2,-9.794881439E0,4.290078735E-1,9.804306633E0
1.158949642E1,-3.502716064E-2,-9.799521790E0,4.330494690E-1,9.809148080E0
1.159946542E1,-2.260299683E-2,-9.798473969E0,4.245172119E-1,9.807691771E0
1.160943542E1,-3.817062378E-2,-9.790390778E0,4.155358887E-1,9.799279496E0
1.161940442E1,-1.706451416E-2,-9.799821167E0,4.278103638E-1,9.809169578E0
1.162937342E1,-1.332229614E-2,-9.778864746E0,4.228706360E-1,9.788012708E0
1.163934242E1,-2.589614868E-2,-9.796078949E0,4.412823486E-1,9.806047292E0
1.164931142E1,-3.338058472E-2,-9.801018677E0,4.318519592E-1,9.810584971E0
1.165928042E1,-8.382568359E-3,-9.775870972E0,4.346960449E-1,9.785534435E0
1.166924942E1,-1.466949463E-2,-9.779762878E0,4.131408691E-1,9.788496439E0
1.167921842E1,-2.933898926E-2,-9.793683929E0,4.257147217E-1,9.802976013E0
1.168918742E1,-2.694396973E-2,-9.784702606E0,4.302053833E-1,9.794192552E0
1.169915542E1,-4.176315308E-2,-9.796528015E0,4.231700134E-1,9.805752300E0
1.170912442E1,-2.574645996E-2,-9.799671478E0,4.186793518E-1,9.808644981E0
1.171909342E1,-1.032852173E-2,-9.802216187E0,4.340972900E-1,9.811829050E0
1.172906242E1,-1.841171265E-2,-9.790091400E0,4.158352661E-1,9.798936043E0
1.173903242E1,-3.592529297E-2,-9.787995758E0,4.076023865E-1,9.796544865E0
1.174900142E1,-3.173400879E-2,-9.787247314E0,4.294569397E-1,9.796716302E0
1.175897142E1,-2.754272461E-2,-9.792785797E0,4.147874451E-1,9.801605016E0
1.176894142E1,7.783813477E-3,-9.773925018E0,4.176315308E-1,9.782846567E0
1.177891142E1,-9.729766846E-3,-9.775421906E0,4.412823486E-1,9.785381863E0
1.178888142E1,-2.874023438E-2,-9.791887665E0,4.170327759E-1,9.800806415E0
1.179885142E1,-2.784210205E-2,-9.803563385E0,4.191284180E-1,9.812558222E0
1.180882242E1,-2.844085693E-2,-9.779463501E0,4.179309082E-1,9.788431003E0
1.181879242E1,-3.367996216E-2,-9.785600739E0,4.343966675E-1,9.795295637E0
1.182876142E1,-2.529739380E-2,-9.805359650E0,4.315525818E-1,9.814884383E0
1.183873142E1,-2.948867798E-2,-9.796228638E0,4.215234375E-1,9.805337685E0
1.184870142E1,-2.110610962E-2,-9.785600739E0,4.203259277E-1,9.794646557E0
1.185867142E1,-3.188369751E-2,-9.804311829E0,4.320016479E-1,9.813876524E0
1.186864142E1,-2.739303589E-2,-9.790091400E0,4.132905579E-1,9.798849376E0
1.187861042E1,-3.173400879E-2,-9.790540466E0,4.293072510E-1,9.799999714E0
1.188858042E1,-1.945953369E-2,-9.792935486E0,4.074526978E-1,9.801427539E0
1.189855042E1,-3.203338623E-2,-9.794432373E0,4.201762390E-1,9.803493241E0
1.190851942E1,-3.861968994E-2,-9.785151672E0,4.331991577E-1,9.794812211E0
1.191848842E1,-2.290237427E-2,-9.795031128E0,4.266128540E-1,9.804343825E0
1.192845742E1,-2.709365845E-2,-9.795330505E0,4.150868225E-1,9.804158855E0
1.193842742E1,-3.263214111E-2,-9.795480194E0,4.200265503E-1,9.804535654E0
1.194839642E1,-3.218307495E-2,-9.790989532E0,4.212240601E-1,9.800099055E0
1.195836642E1,-2.185455322E-2,-9.798623657E0,4.198768616E-1,9.807639868E0
1.196833542E1,-2.604583740E-2,-9.783355408E0,4.203259277E-1,9.792415193E0
1.197830442E1,-1.886077881E-2,-9.782008209E0,4.231700134E-1,9.791175271E0
1.198827442E1,-2.634521484E-2,-9.801617432E0,4.240681458E-1,9.810822195E0
1.199824442E1,-3.547622681E-2,-9.801767120E0,4.234693909E-1,9.810974649E0
1.200821342E1,-2.290237427E-2,-9.809550934E0,4.282594299E-1,9.818921539E0
1.201818342E1,-3.173400879E-2,-9.789492645E0,4.179309082E-1,9.798461080E0
1.202815342E1,-2.933898926E-2,-9.794731750E0,4.260140991E-1,9.804035845E0
1.203812342E1,-3.353027344E-2,-9.784253540E0,4.275109863E-1,9.793646270E0
1.204809342E1,-3.128494263E-2,-9.783954163E0,4.165837097E-1,9.792868823E0
1.205806342E1,-3.787124634E-2,-9.783505096E0,4.137396240E-1,9.792322844E0
1.206803242E1,-3.682342529E-2,-9.794282684E0,4.194277954E-1,9.803328462E0
1.207800142E1,-3.757186890E-2,-9.800719299E0,4.019142151E-1,9.809028773E0
1.208797142E1,-4.011657715E-2,-9.774074707E0,4.279600525E-1,9.783521632E0
1.209793942E1,-2.005828857E-2,-9.779463501E0,4.117936707E-1,9.788150118E0
1.210790942E1,-2.903961182E-2,-9.792336731E0,4.275109863E-1,9.801707382E0
1.211787742E1,-2.454895020E-2,-9.783654785E0,4.170327759E-1,9.792569629E0
1.212784642E1,-6.436614990E-3,-9.784403229E0,4.261637878E-1,9.793681818E0
1.213781542E1,-2.035766602E-2,-9.772278442E0,4.243675232E-1,9.781509504E0
1.214778429E1,-1.586700439E-2,-9.783056030E0,4.351451111E-1,9.792741614E0
1.215775329E1,-3.248245239E-2,-9.805209961E0,4.309538269E-1,9.814729680E0
1.216772229E1,-9.729766846E-3,-9.793085175E0,4.245172119E-1,9.802286813E0
1.217769129E1,-9.131011963E-3,-9.788744202E0,4.203259277E-1,9.797768639E0
1.218766029E1,-1.826202393E-2,-9.781409454E0,4.116439819E-1,9.790084534E0
1.219762929E1,-3.442840576E-2,-9.788295135E0,4.179309082E-1,9.797273765E0
1.220759829E1,-3.562591553E-2,-9.793833618E0,4.062551880E-1,9.802320614E0
1.221756729E1,-4.326004028E-2,-9.785301361E0,4.101470947E-1,9.793988707E0
1.222753529E1,-4.370910645E-2,-9.795779572E0,4.128414917E-1,9.804572709E0
1.223750429E1,-1.960922241E-2,-9.792785797E0,4.267625427E-1,9.802100002E0
1.224747229E1,-2.395019531E-2,-9.803413696E0,4.288581848E-1,9.812818813E0
1.225744129E1,-1.571731567E-2,-9.789642334E0,4.209246826E-1,9.798699998E0
1.226740829E1,-1.661544800E-2,-9.783654785E0,4.240681458E-1,9.792855090E0
1.227737629E1,-3.787124634E-2,-9.799372101E0,4.284091187E-1,9.808805339E0
1.228734529E1,-4.071533203E-2,-9.788444824E0,4.204756165E-1,9.797556305E0
1.229731329E1,-2.170486450E-2,-9.785301361E0,4.237687683E-1,9.794497118E0
1.230728129E1,-2.844085693E-2,-9.798923035E0,4.369413757E-1,9.808701203E0
1.231724929E1,-3.038681030E-2,-9.811197510E0,4.317022705E-1,9.820737589E0
1.232721729E1,-2.380050659E-2,-9.789492645E0,4.176315308E-1,9.798425833E0
1.233718529E1,-1.646575928E-3,-9.775122528E0,4.176315308E-1,9.784040027E0
1.234715429E1,-1.017883301E-2,-9.790690155E0,4.189787292E-1,9.799656142E0
1.235712429E1,-3.487747192E-2,-9.784253540E0,4.382885742E-1,9.794127355E0
1.236709229E1,-3.323089600E-2,-9.780661011E0,4.197271729E-1,9.789719352E0
1.237706129E1,-2.245330811E-2,-9.792785797E0,4.340972900E-1,9.802428183E0
1.238703029E1,-2.275268555E-2,-9.790091400E0,4.213737488E-1,9.799181759E0
1.239699929E1,-3.712280273E-2,-9.800120544E0,4.293072510E-1,9.809589467E0
1.240696829E1,-1.945953369E-2,-9.791438599E0,4.128414917E-1,9.800157478E0
1.241693729E1,-6.137237549E-3,-9.792187042E0,4.285588074E-1,9.801562497E0
1.242690529E1,-8.232879639E-3,-9.798324280E0,4.215234375E-1,9.807390503E0
1.243687429E1,-2.454895020E-2,-9.794132996E0,4.460723877E-1,9.804316619E0
1.244684129E1,-2.649490356E-2,-9.799671478E0,4.311035156E-1,9.809185150E0
1.245680929E1,-1.302291870E-2,-9.791438599E0,4.263134766E-1,9.800723576E0
1.246677829E1,-3.472778320E-2,-9.801168365E0,4.096980286E-1,9.809788979E0
1.247674629E1,-1.990859985E-2,-9.813442841E0,4.110452271E-1,9.822067752E0
1.248671529E1,-2.230361938E-2,-9.786648560E0,4.153862000E-1,9.795485347E0
1.249668429E1,-2.409988403E-2,-9.784852295E0,4.219725037E-1,9.793976518E0
1.250665329E1,-2.619552612E-2,-9.777517548E0,4.299060059E-1,9.786999273E0
1.251662229E1,-3.412902832E-2,-9.799970856E0,4.213737488E-1,9.809085044E0
1.252659129E1,-2.888992310E-2,-9.795330505E0,4.273612976E-1,9.804691327E0
1.253656029E1,-3.921844482E-2,-9.793683929E0,4.168830872E-1,9.802630999E0
1.254652929E1,-2.724334717E-2,-9.794282684E0,4.031117249E-1,9.802612640E0
1.255649829E1,-3.098556519E-2,-9.795180817E0,4.119433594E-1,9.803888242E0
1.256646729E1,-3.023712158E-2,-9.798174591E0,4.233197021E-1,9.807361479E0
1.257643629E1,-2.634521484E-2,-9.787247314E0,4.207749939E-1,9.796323579E0
1.258640429E1,-2.080673218E-2,-9.789193268E0,4.306544495E-1,9.798683637E0
1.259637429E1,-2.903961182E-2,-9.790241089E0,4.129911804E-1,9.798991050E0
1.260634329E1,-4.041595459E-2,-9.806257782E0,4.242178345E-1,9.815512514E0
1.261631229E1,-2.035766602E-2,-9.789342957E0,4.099974060E-1,9.797946103E0
1.262628129E1,-1.661544800E-2,-9.797426147E0,4.186793518E-1,9.806381983E0
1.263625029E1,-2.365081787E-2,-9.793683929E0,4.255650330E-1,9.802954140E0
1.264621929E1,-4.775070190E-2,-9.812245331E0,4.275109863E-1,9.821670133E0
1.265618929E1,-3.188369751E-2,-9.788594513E0,4.288581848E-1,9.798036459E0
1.266615829E1,-3.008743286E-2,-9.797575836E0,4.186793518E-1,9.806563614E0
1.267612829E1,-1.766326904E-2,-9.796078949E0,4.095483398E-1,9.804652192E0
1.268609829E1,-3.742218018E-3,-9.788444824E0,4.269122314E-1,9.797750769E0
1.269606729E1,-2.874023438E-2,-9.788444824E0,4.246669006E-1,9.797694630E0
1.270603629E1,-2.544708252E-2,-9.777816925E0,4.291575623E-1,9.787263539E0
1.271600529E1,-4.580474854E-2,-9.785900116E0,4.113446045E-1,9.794648719E0
1.272597529E1,-1.362167358E-2,-9.788594513E0,4.299060059E-1,9.798039970E0
1.273594529E1,-2.125579834E-2,-9.793683929E0,4.150868225E-1,9.802499364E0
1.274591429E1,-1.077758789E-2,-9.783205719E0,4.116439819E-1,9.791868109E0
1.275588329E1,-2.335144043E-2,-9.790989532E0,4.173321533E-1,9.799907522E0
1.276585329E1,-3.577560425E-2,-9.792935486E0,4.188290405E-1,9.801953024E0
1.277582329E1,-2.065704346E-2,-9.773625641E0,4.415817261E-1,9.783617905E0
1.278579229E1,-3.427871704E-2,-9.799222412E0,4.237687683E-1,9.808441002E0
1.279576129E1,-3.203338623E-2,-9.777966614E0,4.369413757E-1,9.787776816E0
1.280573029E1,-3.637435913E-2,-9.810748444E0,4.216731262E-1,9.819873540E0
1.281569929E1,-6.586303711E-3,-9.771080933E0,4.239184570E-1,9.780274681E0
1.282566729E1,-3.742218018E-2,-9.803114319E0,4.258644104E-1,9.812431465E0
1.283563629E1,-3.158432007E-2,-9.781110077E0,4.257147217E-1,9.790421080E0
1.284560529E1,-3.008743286E-2,-9.786498871E0,4.267625427E-1,9.795845633E0
1.285557529E1,-1.841171265E-2,-9.786349182E0,4.308041382E-1,9.795844094E0
1.286554429E1,-1.796264648E-2,-9.802216187E0,4.300556946E-1,9.811662078E0
1.287551329E1,-2.395019531E-2,-9.792785797E0,4.309538269E-1,9.802293022E0
1.288548229E1,-5.987548828E-3,-9.784103851E0,4.203259277E-1,9.793130139E0
1.289545129E1,-2.305206299E-2,-9.798024902E0,4.275109863E-1,9.807374217E0
1.290542029E1,-1.691482544E-2,-9.788893890E0,4.107458496E-1,9.797522231E0
1.291539029E1,-2.574645996E-2,-9.799521790E0,4.212240601E-1,9.808604380E0
1.292535929E1,-2.514770508E-2,-9.780810699E0,4.176315308E-1,9.789755178E0
1.293532829E1,-3.173400879E-2,-9.794881439E0,4.207749939E-1,9.803966598E0
1.294529729E1,-3.263214111E-2,-9.771529999E0,4.279600525E-1,9.780951548E0
1.295526629E1,-2.380050659E-2,-9.779613190E0,4.225712585E-1,9.788767393E0
1.296523529E1,-3.188369751E-2,-9.790989532E0,4.182302856E-1,9.799969855E0
1.297520529E1,-2.903961182E-2,-9.778864746E0,4.306544495E-1,9.788386092E0
1.298517429E1,-7.484436035E-3,-9.790690155E0,4.231700134E-1,9.799833804E0
1.299514329E1,-2.529739380E-2,-9.794731750E0,4.297563171E-1,9.804187907E0
1.300511229E1,-3.323089600E-2,-9.788145447E0,4.102967834E-1,9.796797386E0
1.301508129E1,-3.727249146E-2,-9.781858521E0,4.192781067E-1,9.790911065E0
1.302504929E1,-2.918930054E-2,-9.805509338E0,4.339476013E-1,9.815150326E0
1.303501829E1,-2.305206299E-2,-9.783056030E0,4.243675232E-1,9.792282905E0
1.304498729E1,-7.185058594E-3,-9.793384552E0,4.212240601E-1,9.802441651E0
1.305495629E1,-8.232879639E-3,-9.793683929E0,4.231700134E-1,9.802825386E0
1.306492529E1,-2.754272461E-2,-9.799970856E0,4.239184570E-1,9.809173983E0
1.307489329E1,-2.155517578E-2,-9.775721283E0,4.303550720E-1,9.785213167E0
1.308486329E1,-2.320175171E-2,-9.798773346E0,4.281097412E-1,9.808148416E0
1.309483229E1,-3.397933960E-2,-9.787546692E0,4.213737488E-1,9.796671918E0
1.310480029E1,-3.712280273E-2,-9.786199493E0,4.137396240E-1,9.795011950E0
1.311476929E1,-2.888992310E-2,-9.794582062E0,4.064048767E-1,9.803052449E0
1.312473729E1,-1.751358032E-2,-9.789642334E0,4.077520752E-1,9.798146024E0
1.313470529E1,-2.769241333E-2,-9.786049805E0,4.231700134E-1,9.795234071E0
1.314467417E1,-1.960922241E-2,-9.789792023E0,4.342469788E-1,9.799437882E0
1.315464317E1,-2.200424194E-2,-9.798923035E0,4.282594299E-1,9.808301737E0
1.316461117E1,-2.395019531E-2,-9.779313812E0,4.326004028E-1,9.788906750E0
1.317458017E1,-2.799179077E-2,-9.790241089E0,4.254153442E-1,9.799519495E0
1.318454917E1,-2.918930054E-2,-9.779912567E0,4.207749939E-1,9.789003700E0
1.319451817E1,-2.844085693E-2,-9.774523773E0,4.170327759E-1,9.783457477E0
1.320448617E1,-3.712280273E-2,-9.770781555E0,4.231700134E-1,9.780011409E0
1.321445417E1,-1.826202393E-2,-9.791438599E0,4.242178345E-1,9.800641005E0
1.322442317E1,-4.191284180E-2,-9.782008209E0,4.393363953E-1,9.791958832E0
1.323439117E1,-3.128494263E-2,-9.798473969E0,4.430786133E-1,9.808536563E0
1.324435917E1,-3.068618774E-2,-9.798174591E0,4.345463562E-1,9.807853868E0
1.325432717E1,-1.751358032E-2,-9.785451050E0,4.152365112E-1,9.794272833E0
1.326429517E1,-1.227447510E-2,-9.774074707E0,4.108955383E-1,9.782715481E0
1.327426317E1,-2.020797729E-2,-9.785301361E0,4.188290405E-1,9.794281436E0
1.328423117E1,-2.948867798E-2,-9.792336731E0,4.355941772E-1,9.802064605E0
1.329419917E1,-3.742218018E-2,-9.787995758E0,4.291575623E-1,9.797470979E0
1.330416817E1,-5.298980713E-2,-9.791438599E0,4.251159668E-1,9.800806157E0
1.331413717E1,-3.562591553E-2,-9.783954163E0,4.155358887E-1,9.792839136E0
1.332410517E1,-2.978805542E-2,-9.795929260E0,4.412823486E-1,9.805908806E0
1.333407317E1,-1.317260742E-2,-9.789342957E0,4.246669006E-1,9.798558619E0
1.334404117E1,-2.619552612E-2,-9.785750427E0,4.206253052E-1,9.794821248E0
1.335401017E1,-2.619552612E-2,-9.798623657E0,4.267625427E-1,9.807947698E0
1.336397817E1,-1.736389160E-2,-9.781110077E0,4.328997803E-1,9.790700591E0
1.337394617E1,-2.769241333E-2,-9.784103851E0,4.309538269E-1,9.793629370E0
1.338391317E1,-1.646575928E-2,-9.790989532E0,4.381388855E-1,9.800801642E0
1.339388117E1,-9.131011963E-3,-9.778116302E0,4.266128540E-1,9.787422558E0
1.340385017E1,-2.110610962E-2,-9.793683929E0,4.117936707E-1,9.802360145E0
1.341381817E1,-3.218307495E-2,-9.786049805E0,4.191284180E-1,9.795074025E0
1.342378617E1,-3.727249146E-2,-9.801916809E0,4.236190796E-1,9.811137319E0
1.343375517E1,-3.098556519E-2,-9.792785797E0,4.171824646E-1,9.801716941E0
1.344372317E1,-3.487747192E-2,-9.777966614E0,4.056564331E-1,9.786439837E0
1.345369117E1,-3.637435913E-2,-9.784852295E0,4.032614136E-1,9.793226092E0
1.346365917E1,-4.550537109E-2,-9.785001984E0,4.237687683E-1,9.794279684E0
1.347362717E1,-2.380050659E-2,-9.785301361E0,4.340972900E-1,9.794954295E0
1.348359617E1,-2.065704346E-2,-9.801018677E0,4.114942932E-1,9.809674886E0
1.349356517E1,-4.026626587E-2,-9.809251556E0,4.079017639E-1,9.817811432E0
1.350353317E1,-2.395019531E-2,-9.784552917E0,4.219725037E-1,9.793677052E0
1.351350217E1,-1.811233521E-2,-9.789642334E0,4.213737488E-1,9.798723433E0
1.352347117E1,-1.856140137E-2,-9.796228638E0,4.336482239E-1,9.805839629E0
1.353344117E1,-3.547622681E-2,-9.790540466E0,4.287084961E-1,9.799986335E0
1.354341017E1,-3.008743286E-2,-9.802665253E0,4.327500916E-1,9.812258861E0
1.355337917E1,-2.559677124E-2,-9.792037354E0,4.131408691E-1,9.800782423E0
1.356334817E1,-3.966751099E-2,-9.797126770E0,4.278103638E-1,9.806543130E0
1.357331817E1,-2.439926147E-2,-9.801318054E0,4.300556946E-1,9.810778706E0
1.358328717E1,-2.649490356E-2,-9.792037354E0,4.230203247E-1,9.801206237E0
1.359325717E1,-1.766326904E-2,-9.790690155E0,4.122427368E-1,9.799381092E0
1.360322617E1,-2.784210205E-2,-9.802365875E0,4.108955383E-1,9.811013560E0
1.361319517E1,-3.951782227E-2,-9.789642334E0,4.170327759E-1,9.798600667E0
1.362316417E1,-3.607498169E-2,-9.808952179E0,4.303550720E-1,9.818454550E0
1.363313317E1,-2.200424194E-2,-9.796977081E0,4.243675232E-1,9.806188450E0
1.364310217E1,-3.098556519E-2,-9.796228638E0,4.361929321E-1,9.805983882E0
1.365307117E1,-3.203338623E-2,-9.808203735E0,4.131408691E-1,9.816953297E0
1.366304017E1,-1.826202393E-2,-9.793683929E0,4.156855774E-1,9.802518702E0
1.367300917E1,-2.305206299E-2,-9.795480194E0,4.270619202E-1,9.804812365E0
1.368297817E1,-3.712280273E-2,-9.786648560E0,4.263134766E-1,9.795999761E0
1.369294717E1,-4.011657715E-2,-9.790690155E0,4.276606750E-1,9.800107995E0
1.370291517E1,-3.323089600E-2,-9.794731750E0,4.270619202E-1,9.804093851E0
1.371288417E1,-2.395019531E-2,-9.783056030E0,4.303550720E-1,9.792546369E0
1.372285317E1,-2.604583740E-2,-9.784103851E0,4.337979126E-1,9.793750415E0
1.373282217E1,-3.203338623E-2,-9.777068481E0,4.173321533E-1,9.786023725E0
1.374279017E1,-3.412902832E-2,-9.795330505E0,4.167333984E-1,9.804250671E0
1.375275917E1,-2.619552612E-2,-9.796078949E0,4.284091187E-1,9.805477212E0
1.376272817E1,-4.011657715E-2,-9.786349182E0,4.129911804E-1,9.795141723E0
1.377269717E1,-2.604583740E-2,-9.799072723E0,4.171824646E-1,9.807983780E0
1.378266617E1,-2.604583740E-2,-9.791438599E0,4.125421143E-1,9.800160163E0
1.379263417E1,-3.532653809E-2,-9.792187042E0,4.185296631E-1,9.801190852E0
1.380260317E1,-1.826202393E-2,-9.797426147E0,4.228706360E-1,9.806564750E0
1.381257217E1,-1.152603149E-2,-9.789492645E0,4.209246826E-1,9.798544621E0
1.382254117E1,-3.757186890E-2,-9.777068481E0,4.170327759E-1,9.786030660E0
1.383251017E1,-3.098556519E-2,-9.777966614E0,4.290078735E-1,9.787422488E0
1.384247917E1,-2.260299683E-2,-9.783355408E0,4.323010254E-1,9.792927964E0
1.385244817E1,-3.876937866E-2,-9.780661011E0,4.203259277E-1,9.789765409E0
1.386241717E1,-2.529739380E-2,-9.774673462E0,4.348457336E-1,9.784373871E0
1.387238617E1,-2.589614868E-2,-9.800569611E0,4.282594299E-1,9.809956241E0
1.388235417E1,-3.263214111E-2,-9.802066498E0,4.195774841E-1,9.811096664E0
1.389232317E1,-2.409988403E-2,-9.803563385E0,4.155358887E-1,9.812395524E0
1.390229317E1,-3.712280273E-2,-9.797426147E0,4.174818420E-1,9.806387118E0
1.391226217E1,-5.119354248E-2,-9.806856537E0,4.132905579E-1,9.815694830E0
1.392223117E1,-1.736389160E-2,-9.806257782E0,4.111949158E-1,9.814890445E0
1.393220117E1,-2.529739380E-2,-9.791588287E0,4.061054993E-1,9.800038919E0
1.394217117E1,-3.158432007E-2,-9.789792023E0,4.236190796E-1,9.799003957E0
1.395214217E1,-2.110610962E-2,-9.789492645E0,4.315525818E-1,9.799022877E0
1.396211217E1,-1.706451416E-2,-9.785900116E0,4.275109863E-1,9.795248742E0
1.397208117E1,-2.948867798E-2,-9.792037354E0,4.174818420E-1,9.800977309E0
1.398205117E1,-3.008743286E-2,-9.797276459E0,4.222718811E-1,9.806418551E0
1.399202117E1,-2.260299683E-2,-9.795629883E0,4.212240601E-1,9.804708328E0
1.400198917E1,-2.649490356E-2,-9.779463501E0,4.336482239E-1,9.789109210E0
1.401195917E1,-3.233276367E-2,-9.781110077E0,4.132905579E-1,9.789891155E0
1.402192817E1,-4.939727783E-3,-9.790690155E0,4.098477173E-1,9.799265955E0
1.403189817E1,-2.380050659E-2,-9.783954163E0,4.080514526E-1,9.792488525E0
1.404186717E1,-4.311035156E-2,-9.787097626E0,4.351451111E-1,9.796861217E0
1.405183717E1,-2.469863892E-2,-9.788594513E0,4.197271729E-1,9.797620296E0
1.406180717E1,-2.185455322E-2,-9.785301361E0,4.204756165E-1,9.794355522E0
1.407177717E1,-2.859054565E-2,-9.798473969E0,4.201762390E-1,9.807520461E0
1.408174617E1,-3.382965088E-2,-9.787097626E0,4.135899353E-1,9.795891027E0
1.409171517E1,-1.975891113E-2,-9.792187042E0,4.206253052E-1,9.801236816E0
1.410168417E1,-1.422042847E-2,-9.793983307E0,4.239184570E-1,9.803163678E0
1.411165217E1,-3.667373657E-2,-9.790540466E0,4.245172119E-1,9.799808286E0
1.412162217E1,-3.487747192E-2,-9.812993774E0,4.252656555E-1,9.822266242E0
1.413159217E1,-3.098556519E-2,-9.792336731E0,4.343966675E-1,9.802016079E0
1.414156217E1,-1.047821045E-2,-9.794881439E0,4.360432434E-1,9.804588003E0
1.415153142E1,-5.089416504E-3,-9.778116302E0,4.159849548E-1,9.786962134E0
1.416150042E1,-3.038681030E-2,-9.790091400E0,4.093986511E-1,9.798694823E0
1.417147042E1,-5.313949585E-2,-9.784253540E0,4.191284180E-1,9.793370705E0
1.418144042E1,-3.023712158E-2,-9.795629883E0,4.179309082E-1,9.804587973E0
1.419141042E1,-2.978805542E-2,-9.780062256E0,4.358935547E-1,9.789816558E0
1.420138142E1,-3.233276367E-2,-9.793833618E0,4.352947998E-1,9.803555677E0
1.421135142E1,-2.005828857E-2,-9.789193268E0,4.192781067E-1,9.798188674E0
1.422132242E1,-1.496887207E-2,-9.784403229E0,4.201762390E-1,9.793432426E0
1.423129142E1,-1.826202393E-2,-9.791887665E0,4.402345276E-1,9.801795957E0
1.424126142E1,-4.266128540E-2,-9.785750427E0,4.276606750E-1,9.795183769E0
1.425123142E1,-5.029541016E-2,-9.788145447E0,4.287084961E-1,9.797658490E0
1.426120142E1,-1.736389160E-2,-9.789492645E0,4.188290405E-1,9.798463427E0
1.427117042E1,-1.945953369E-2,-9.785151672E0,4.299060059E-1,9.794610309E0
1.428114042E1,-2.200424194E-2,-9.792935486E0,4.102967834E-1,9.801551564E0
1.429110942E1,-2.020797729E-2,-9.785600739E0,4.246669006E-1,9.794831910E0
1.430107942E1,-2.200424194E-2,-9.786199493E0,4.312532043E-1,9.795721721E0
1.431104942E1,-1.511856079E-2,-9.787397003E0,4.171824646E-1,9.796295722E0
1.432101942E1,-2.439926147E-2,-9.805808716E0,4.213737488E-1,9.814888473E0
1.433098942E1,-3.188369751E-2,-9.795779572E0,4.137396240E-1,9.804564981E0
1.434095842E1,-2.978805542E-2,-9.783355408E0,4.273612976E-1,9.792730367E0
1.435092842E1,-1.422042847E-2,-9.781110077E0,4.242178345E-1,9.790315487E0
1.436089742E1,-1.541793823E-2,-9.799372101E0,4.314028931E-1,9.808875559E0
1.437086642E1,-2.679428101E-2,-9.793384552E0,4.349954224E-1,9.803077065E0
1.438083642E1,-3.667373657E-2,-9.790989532E0,4.200265503E-1,9.800063433E0
1.439080542E1,-1.811233521E-2,-9.784852295E0,4.132905579E-1,9.793593394E0
1.440077442E1,-2.484832764E-2,-9.791139221E0,4.219725037E-1,9.800259460E0
1.441074442E1,-2.529739380E-2,-9.790989532E0,4.255650330E-1,9.800266404E0
1.442071442E1,-2.170486450E-2,-9.805209961E0,4.326004028E-1,9.814772366E0
1.443068342E1,-2.020797729E-2,-9.801467743E0,4.285588074E-1,9.810853221E0
1.444065242E1,-2.395019531E-3,-9.792037354E0,4.198768616E-1,9.801035550E0
1.445062142E1,-3.652404785E-2,-9.787846069E0,4.123924255E-1,9.796597991E0
1.446059042E1,-3.457809448E-2,-9.806407471E0,4.363426208E-1,9.816171250E0
1.447055942E1,-2.574645996E-2,-9.789043579E0,4.405339050E-1,9.798985008E0
1.448052842E1,-2.679428101E-2,-9.783505096E0,4.237687683E-1,9.792715143E0
1.449049742E1,-3.263214111E-2,-9.793683929E0,4.182302856E-1,9.802664247E0
1.450046542E1,-1.556762695E-2,-9.800419922E0,4.333488464E-1,9.810008370E0
1.451043442E1,-1.930984497E-2,-9.782307587E0,4.228706360E-1,9.791462310E0
1.452040242E1,-1.332229614E-2,-9.787696381E0,4.314028931E-1,9.797208091E0
1.453037142E1,-2.933898926E-2,-9.802964630E0,4.200265503E-1,9.812002783E0
1.454034042E1,-3.787124634E-2,-9.805808716E0,4.257147217E-1,9.815118534E0
1.455030842E1,-3.532653809E-2,-9.798623657E0,4.281097412E-1,9.808035047E0
1.456027742E1,-3.532653809E-2,-9.802066498E0,4.082011414E-1,9.810626064E0
1.457024442E1,-2.320175171E-2,-9.789193268E0,4.327500916E-1,9.798781342E0
1.458021242E1,-2.185455322E-2,-9.783355408E0,4.321513367E-1,9.792919658E0
1.459018042E1,-1.886077881E-2,-9.785600739E0,4.053570557E-1,9.794011021E0
1.460014742E1,-2.679428101E-2,-9.784253540E0,4.138893127E-1,9.793040367E0
1.461011542E1,-1.047821045E-2,-9.781409454E0,4.288581848E-1,9.790812022E0
1.462008242E1,-2.050735474E-2,-9.784253540E0,4.375401306E-1,9.794053260E0
1.463005042E1,-2.963836670E-2,-9.784103851E0,4.331991577E-1,9.793734125E0
1.464001842E1,-2.155517578E-2,-9.773026886E0,4.170327759E-1,9.781944361E0
1.464998742E1,-2.739303589E-2,-9.784103851E0,4.135899353E-1,9.792879821E0
1.465995542E1,-2.424957275E-2,-9.800270233E0,4.287084961E-1,9.809672556E0
1.466992442E1,-1.302291870E-2,-9.797875214E0,4.198768616E-1,9.806876408E0
1.467989242E1,-2.634521484E-2,-9.794881439E0,4.385879517E-1,9.804731300E0
1.468986142E1,-2.589614868E-2,-9.779912567E0,4.300556946E-1,9.789397751E0
1.469982942E1,-3.637435913E-2,-9.790540466E0,4.162843323E-1,9.799453983E0
1.470979742E1,-2.918930054E-2,-9.779613190E0,4.179309082E-1,9.788582757E0
1.471976642E1,-2.933898926E-2,-9.794881439E0,4.158352661E-1,9.803748373E0
1.472973342E1,-3.008743286E-2,-9.805509338E0,4.144880676E-1,9.814311947E0
1.473970242E1,-2.065704346E-2,-9.805359650E0,4.285588074E-1,9.814742341E0
1.474967142E1,-2.829116821E-2,-9.802365875E0,4.219725037E-1,9.811485002E0
1.475964042E1,-2.844085693E-2,-9.796228638E0,4.243675232E-1,9.805457266E0
1.476960842E1,-2.634521484E-2,-9.788744202E0,4.245172119E-1,9.797980505E0
1.477957642E1,-2.619552612E-2,-9.790241089E0,4.129911804E-1,9.798983034E0
1.478954442E1,-3.622467041E-2,-9.795629883E0,4.113446045E-1,9.804329728E0
1.479951242E1,-3.502716064E-2,-9.789193268E0,4.290078735E-1,9.798651922E0
1.480948142E1,-2.649490356E-2,-9.779463501E0,4.200265503E-1,9.788515242E0
1.481945042E1,-1.317260742E-2,-9.781259766E0,4.284091187E-1,9.790646071E0
1.482941842E1,-2.110610962E-2,-9.792336731E0,4.267625427E-1,9.801654472E0
1.483938742E1,-1.407073975E-2,-9.795629883E0,4.372407532E-1,9.805393529E0
1.484935642E1,-2.275268555E-2,-9.787397003E0,4.131408691E-1,9.796139197E0
1.485932442E1,-2.290237427E-2,-9.783205719E0,4.188290405E-1,9.792193647E0
1.486929342E1,-2.754272461E-2,-9.786349182E0,4.290078735E-1,9.795786680E0
1.487926142E1,-2.350112915E-2,-9.785900116E0,4.303550720E-1,9.795386612E0
1.488922942E1,-2.230361938E-2,-9.786498871E0,4.216731262E-1,9.795604414E0
1.489919742E1,-1.871109009E-2,-9.805509338E0,4.224215698E-1,9.814621922E0
1.490916542E1,-4.625381470E-2,-9.795779572E0,4.330494690E-1,9.805456066E0
1.491913342E1,-4.640350342E-2,-9.794432373E0,4.188290405E-1,9.803493080E0
1.492910242E1,-1.901046753E-2,-9.777816925E0,4.185296631E-1,9.786788661E0
1.493907042E1,-3.113525391E-2,-9.800868988E0,4.297563171E-1,9.810336020E0
1.494903842E1,-7.185058594E-3,-9.787846069E0,4.245172119E-1,9.797050432E0
1.495900742E1,-2.035766602E-2,-9.802066498E0,4.233197021E-1,9.811224268E0
1.496897542E1,-2.290237427E-2,-9.797126770E0,4.140390015E-1,9.805898519E0
1.497894342E1,-6.885681152E-3,-9.785600739E0,4.159849548E-1,9.794440908E0
1.498891142E1,-2.469863892E-2,-9.791588287E0,4.261637878E-1,9.800889081E0
1.499887942E1,-3.218307495E-2,-9.783954163E0,4.309538269E-1,9.793493555E0
1.500884742E1,-1.901046753E-2,-9.778864746E0,4.185296631E-1,9.787835522E0
1.501881542E1,-2.275268555E-2,-9.791887665E0,4.176315308E-1,9.800816181E0
1.502878342E1,-3.068618774E-2,-9.795629883E0,4.245172119E-1,9.804872325E0
1.503875142E1,-1.945953369E-2,-9.793833618E0,4.237687683E-1,9.803016657E0
1.504871942E1,-2.918930054E-2,-9.799970856E0,4.351451111E-1,9.809670334E0
1.505868742E1,-3.936813354E-2,-9.771829376E0,4.233197021E-1,9.781073498E0
1.506865542E1,-3.397933960E-2,-9.791887665E0,4.261637878E-1,9.801215956E0
1.507862342E1,-2.350112915E-2,-9.793234863E0,4.267625427E-1,9.802557200E0
1.508859142E1,-9.131011963E-3,-9.803264008E0,4.227209473E-1,9.812377978E0
1.509855842E1,-1.781295776E-2,-9.803862762E0,4.242178345E-1,9.813052692E0
1.510852642E1,-2.290237427E-2,-9.806557159E0,4.216731262E-1,9.815645474E0
1.511849542E1,-3.023712158E-2,-9.789193268E0,4.273612976E-1,9.798564017E0
1.512846342E1,-4.296066284E-2,-9.789492645E0,4.164340210E-1,9.798440139E0
1.513843242E1,-2.948867798E-2,-9.785900116E0,4.294569397E-1,9.795363389E0
1.514840092E1,-4.056564331E-2,-9.783505096E0,4.165837097E-1,9.792454214E0
1.515836892E1,-2.679428101E-2,-9.797875214E0,4.041595459E-1,9.806244009E0
1.516833692E1,-1.437011719E-2,-9.789342957E0,4.433779907E-1,9.799389066E0
1.517830592E1,-1.437011719E-2,-9.781110077E0,4.346960449E-1,9.790775326E0
1.518827392E1,-4.954696655E-2,-9.791139221E0,4.222718811E-1,9.800366100E0
1.519824392E1,-5.523513794E-2,-9.816286926E0,4.269122314E-1,9.825721042E0
1.520821192E1,-3.906875610E-2,-9.781409454E0,4.270619202E-1,9.790805849E0
1.521818092E1,-4.266128540E-2,-9.784253540E0,4.143383789E-1,9.793115623E0
1.522814992E1,-2.649490356E-2,-9.787247314E0,4.317022705E-1,9.796799417E0
1.523811892E1,-1.347198486E-2,-9.786049805E0,4.281097412E-1,9.795418839E0
1.524808792E1,-2.514770508E-2,-9.807604980E0,4.204756165E-1,9.816646454E0
1.525805692E1,-2.514770508E-2,-9.785001984E0,4.315525818E-1,9.794546128E0
1.526802592E1,-3.802093506E-2,-9.790540466E0,4.348457336E-1,9.800266273E0
1.527799492E1,-1.811233521E-2,-9.796977081E0,4.287084961E-1,9.806369306E0
1.528796392E1,-2.020797729E-2,-9.781259766E0,4.379891968E-1,9.791081937E0
1.529793392E1,-1.122665405E-2,-9.783654785E0,4.296066284E-1,9.793088831E0
1.530790192E1,-1.781295776E-2,-9.792336731E0,4.396357727E-1,9.802216870E0
1.531787192E1,-2.439926147E-2,-9.795480194E0,4.381388855E-1,9.805304342E0
1.532784092E1,-1.062789917E-2,-9.780511322E0,4.291575623E-1,9.789928033E0
1.533780992E1,-3.367996216E-2,-9.793683929E0,4.138893127E-1,9.802483543E0
1.534777992E1,-4.191284180E-2,-9.804012451E0,4.261637878E-1,9.813359894E0
1.535774892E1,-3.667373657E-2,-9.777367859E0,4.204756165E-1,9.786473673E0
1.536771792E1,-2.574645996E-2,-9.802216187E0,4.204756165E-1,9.811264179E0
1.537768692E1,-2.664459229E-2,-9.781559143E0,4.141886902E-1,9.790360641E0
1.538765692E1,-3.547622681E-2,-9.789193268E0,4.240681458E-1,9.798438508E0
1.539762592E1,-2.035766602E-2,-9.778864746E0,4.191284180E-1,9.787863852E0
1.540759392E1,-3.906875610E-2,-9.788145447E0,4.233197021E-1,9.797372976E0
1.541756292E1,-3.188369751E-2,-9.812395020E0,4.174818420E-1,9.821323927E0
1.542753192E1,-1.466949463E-2,-9.788444824E0,4.035607910E-1,9.796771335E0
1.543750092E1,-2.903961182E-2,-9.797875214E0,4.195774841E-1,9.806897943E0
1.544746892E1,-2.948867798E-2,-9.790839844E0,4.179309082E-1,9.799800032E0
1.545743892E1,-2.649490356E-2,-9.790839844E0,4.171824646E-1,9.799759591E0
1.546740792E1,-2.679428101E-2,-9.794282684E0,4.195774841E-1,9.803302326E0
1.547737592E1,-3.442840576E-2,-9.796378326E0,4.189787292E-1,9.805394271E0
1.548734492E1,-1.152603149E-2,-9.780511322E0,4.275109863E-1,9.789857007E0
1.549731392E1,-2.065704346E-2,-9.799970856E0,4.167333984E-1,9.808849179E0
1.550728192E1,-2.320175171E-2,-9.792935486E0,4.204756165E-1,9.801985691E0
1.551725092E1,-3.667373657E-2,-9.790690155E0,4.200265503E-1,9.799764333E0
1.552721992E1,-1.990859985E-2,-9.780661011E0,4.227209473E-1,9.789812008E0
1.553718892E1,-2.724334717E-2,-9.785600739E0,4.159849548E-1,9.794476377E0
1.554715792E1,-2.574645996E-2,-9.792935486E0,4.414320374E-1,9.802913371E0
1.555712692E1,-2.589614868E-2,-9.787846069E0,4.213737488E-1,9.796946316E0
1.556709592E1,-1.856140137E-2,-9.792636108E0,4.197271729E-1,9.801644626E0
1.557706492E1,-3.143463135E-2,-9.796528015E0,4.275109863E-1,9.805902046E0
1.558703392E1,-2.350112915E-2,-9.783355408E0,4.317022705E-1,9.792903665E0
1.559700292E1,-3.682342529E-2,-9.775870972E0,4.251159668E-1,9.785179242E0
1.560697192E1,-3.098556519E-2,-9.781559143E0,4.264631653E-1,9.790900378E0
1.561694092E1,-1.601669312E-2,-9.791887665E0,4.261637878E-1,9.801170142E0
1.562690992E1,-1.856140137E-2,-9.792636108E0,4.258644104E-1,9.801909353E0
1.563687892E1,-3.278182983E-2,-9.793384552E0,4.204756165E-1,9.802461700E0
1.564684792E1,-3.038681030E-2,-9.786798248E0,4.314028931E-1,9.796348900E0
1.565681692E1,-3.472778320E-2,-9.798324280E0,4.252656555E-1,9.807610085E0
1.566678592E1,-2.245330811E-2,-9.804461517E0,4.281097412E-1,9.813829413E0
1.567675492E1,-2.963836670E-2,-9.785001984E0,4.264631653E-1,9.794335765E0
1.568672392E1,-1.736389160E-2,-9.792336731E0,4.212240601E-1,9.801407545E0
1.569669292E1,-2.125579834E-2,-9.789043579E0,4.266128540E-1,9.798358257E0
1.570666292E1,-1.002914429E-2,-9.782157898E0,4.260140991E-1,9.791435121E0
1.571663192E1,-1.871109009E-2,-9.797276459E0,4.210743713E-1,9.806338753E0
1.572660192E1,-1.975891113E-2,-9.795929260E0,4.183799744E-1,9.804879514E0
1.573657192E1,-3.802093506E-2,-9.784103851E0,4.288581848E-1,9.793572030E0
1.574654192E1,-4.535568237E-2,-9.783804474E0,4.077520752E-1,9.792402610E0
1.575651092E1,-3.592529297E-2,-9.783355408E0,4.234693909E-1,9.792581886E0
1.576647992E1,-2.529739380E-2,-9.780960388E0,4.231700134E-1,9.790142948E0
1.577644892E1,-1.257385254E-2,-9.790091400E0,4.249662781E-1,9.799318551E0
1.578641792E1,-1.990859985E-2,-9.795480194E0,4.258644104E-1,9.804753392E0
1.579638592E1,-1.826202393E-2,-9.777667236E0,4.206253052E-1,9.786727529E0
1.580635392E1,-4.041595459E-2,-9.802665253E0,4.236190796E-1,9.811897504E0
1.581632292E1,-2.409988403E-2,-9.776918793E0,4.248165894E-1,9.786173461E0
1.582629192E1,-3.382965088E-2,-9.793234863E0,4.249662781E-1,9.802509366E0
1.583626092E1,-4.131408691E-2,-9.783056030E0,4.138893127E-1,9.791894429E0
1.584622992E1,-4.131408691E-2,-9.777367859E0,4.279600525E-1,9.786816587E0
1.585619992E1,-2.050735474E-2,-9.792486420E0,4.192781067E-1,9.801479733E0
1.586616892E1,-2.365081787E-2,-9.785001984E0,4.197271729E-1,9.794028491E0
1.587613792E1,-1.077758789E-2,-9.800270233E0,4.317022705E-1,9.809779796E0
1.588610792E1,-1.481918335E-2,-9.785451050E0,4.273612976E-1,9.794789918E0
1.589607792E1,-3.038681030E-2,-9.784103851E0,4.420307922E-1,9.794131036E0
1.590604692E1,-2.948867798E-2,-9.787397003E0,4.349954224E-1,9.797103179E0
1.591601692E1,-3.008743286E-2,-9.787097626E0,4.203259277E-1,9.796165529E0
1.592598592E1,-4.161346436E-2,-9.780661011E0,4.041595459E-1,9.789096303E0
1.593595592E1,-2.409988403E-2,-9.794282684E0,4.095483398E-1,9.802871209E0
1.594592592E1,-8.232879639E-3,-9.806108093E0,4.189787292E-1,9.815058171E0
1.595589592E1,-1.601669312E-2,-9.794881439E0,4.318519592E-1,9.804409980E0
1.596586492E1,-3.188369751E-2,-9.793833618E0,4.312532043E-1,9.803375584E0
1.597583392E1,-1.631607056E-2,-9.784552917E0,4.194277954E-1,9.793552046E0
1.598580392E1,-3.802093506E-2,-9.795779572E0,4.052073669E-1,9.804230516E0
1.599577292E1,-4.640350342E-2,-9.810149689E0,4.040098572E-1,9.818574956E0
1.600574292E1,-3.472778320E-2,-9.780211945E0,4.168830872E-1,9.789154366E0
1.601571292E1,-2.559677124E-2,-9.782307587E0,4.276606750E-1,9.791684767E0
1.602568192E1,-3.442840576E-2,-9.785600739E0,4.358935547E-1,9.795364736E0
1.603565192E1,-1.691482544E-2,-9.786498871E0,4.376898193E-1,9.796296169E0
1.604562192E1,-2.844085693E-3,-9.795330505E0,4.475692749E-1,9.805550778E0
1.605559192E1,-3.083587646E-2,-9.783505096E0,4.351451111E-1,9.793225929E0
1.606556192E1,-2.993774414E-2,-9.781110077E0,4.351451111E-1,9.790830500E0
1.607553092E1,-2.350112915E-2,-9.788744202E0,4.328997803E-1,9.798340041E0
1.608549992E1,-2.140548706E-2,-9.799821167E0,4.314028931E-1,9.809335429E0
1.609546892E1,-2.993774414E-2,-9.791887665E0,4.306544495E-1,9.801399062E0
1.610543892E1,-1.556762695E-2,-9.780211945E0,4.179309082E-1,9.789149824E0
1.611540892E1,-2.305206299E-2,-9.802814941E0,4.155358887E-1,9.811645237E0
1.612537892E1,-2.290237427E-2,-9.786199493E0,4.252656555E-1,9.795462007E0
1.613534792E1,-2.604583740E-2,-9.804760895E0,4.233197021E-1,9.813929598E0
